File Name: 6gait.log
Channel 3: 'VM', 20500 values, engineering units: mV, no filters.
Channel 5: 'FX', 1025 values, engineering units: deg, no filters, extrapolated from 50 to 1000 samples per second.
0.005200  -77.500000
0.009000  -77.500000
0.005200  -77.500000
-0.001500  -77.400000
-0.004600  -77.400000
-0.006800  -77.400000
-0.006800  -77.400000
-0.004600  -77.400000
-0.004600  -77.400000
-0.000800  -77.300000
-0.000800  -77.300000
-0.000800  -77.300000
-0.000800  -77.300000
-0.003000  -77.200000
-0.001500  -77.200000
-0.002300  -77.200000
0.001500  -77.200000
0.004500  -77.100000
0.006700  -77.100000
0.005200  -77.100000
-0.000800  -77.100000
0.000000  -77.100000
0.000700  -77.100000
0.001500  -77.000000
0.001500  -77.000000
0.000700  -77.000000
0.001500  -77.000000
0.000700  -77.000000
-0.001500  -77.000000
-0.004600  -77.000000
-0.003800  -77.000000
0.000700  -77.000000
0.003000  -77.000000
0.004500  -77.000000
0.003000  -77.000000
0.000700  -77.000000
-0.001500  -77.000000
-0.002300  -77.000000
0.001500  -76.900000
0.002200  -76.900000
0.000700  -76.900000
0.003000  -76.900000
0.001500  -76.900000
0.001500  -76.900000
0.002200  -76.900000
0.000700  -76.900000
0.004500  -76.900000
0.005200  -76.900000
0.006000  -76.900000
0.007500  -76.900000
0.005200  -76.800000
0.004500  -76.800000
0.003700  -76.800000
0.003000  -76.800000
0.003000  -76.800000
0.001500  -76.800000
0.000700  -76.800000
-0.001500  -76.800000
-0.003000  -76.800000
-0.003000  -76.800000
-0.003000  -76.800000
-0.001500  -76.800000
-0.000800  -76.700000
0.000000  -76.700000
0.000700  -76.700000
-0.001500  -76.700000
-0.003000  -76.700000
-0.000800  -76.700000
-0.000800  -76.700000
0.001500  -76.700000
0.003000  -76.600000
0.003000  -76.600000
0.003000  -76.600000
0.001500  -76.600000
0.003000  -76.600000
0.003000  -76.600000
0.004500  -76.600000
0.005200  -76.600000
0.003700  -76.500000
0.004500  -76.500000
0.000700  -76.500000
0.000000  -76.500000
0.000700  -76.500000
0.001500  -76.500000
0.001500  -76.500000
-0.000800  -76.500000
0.003000  -76.500000
0.005200  -76.500000
0.008200  -76.500000
0.008200  -76.500000
0.003000  -76.500000
0.006700  -76.500000
0.006700  -76.500000
0.004500  -76.400000
0.003000  -76.400000
0.001500  -76.400000
0.003000  -76.400000
0.003000  -76.400000
0.004500  -76.400000
0.003700  -76.400000
0.000700  -76.400000
-0.001500  -76.400000
-0.002300  -76.400000
-0.002300  -76.400000
-0.002300  -76.300000
0.000700  -76.300000
-0.000800  -76.300000
-0.003000  -76.300000
-0.002300  -76.300000
-0.003000  -76.300000
-0.002300  -76.300000
-0.003800  -76.300000
-0.000800  -76.300000
0.003000  -76.300000
0.002200  -76.300000
0.005200  -76.300000
0.004500  -76.300000
0.004500  -76.200000
0.004500  -76.200000
-0.000800  -76.200000
-0.001500  -76.200000
0.000000  -76.200000
0.000700  -76.200000
0.002200  -76.200000
0.003700  -76.200000
0.004500  -76.200000
0.004500  -76.200000
0.008200  -76.200000
0.007500  -76.200000
0.006000  -76.200000
0.009000  -76.200000
0.005200  -76.200000
0.005200  -76.200000
0.005200  -76.200000
0.001500  -76.200000
-0.001500  -76.200000
-0.002300  -76.200000
-0.000800  -76.200000
-0.002300  -76.200000
-0.002300  -76.200000
-0.002300  -76.200000
-0.002300  -76.200000
-0.003000  -76.200000
-0.003000  -76.200000
0.001500  -76.200000
0.001500  -76.200000
0.003000  -76.200000
0.002200  -76.200000
0.002200  -76.200000
0.003000  -76.200000
0.000700  -76.200000
-0.000800  -76.200000
-0.002300  -76.200000
-0.001500  -76.200000
-0.000800  -76.200000
-0.003800  -76.300000
-0.002300  -76.300000
-0.001500  -76.300000
-0.000800  -76.300000
0.001500  -76.300000
0.000700  -76.300000
0.002200  -76.300000
0.001500  -76.300000
-0.003000  -76.300000
-0.001500  -76.300000
0.001500  -76.400000
0.004500  -76.400000
0.005200  -76.400000
0.005200  -76.400000
0.006700  -76.400000
0.005200  -76.500000
0.003000  -76.500000
0.000700  -76.500000
-0.000800  -76.500000
0.000700  -76.500000
-0.004600  -76.500000
-0.006800  -76.500000
-0.008300  -76.500000
-0.006800  -76.500000
-0.003800  -76.600000
-0.003000  -76.600000
0.001500  -76.600000
0.001500  -76.600000
0.001500  -76.600000
0.004500  -76.700000
0.005200  -76.700000
0.007500  -76.700000
0.003700  -76.700000
0.001500  -76.800000
0.000700  -76.800000
-0.000800  -76.800000
-0.000800  -76.800000
-0.001500  -76.800000
-0.005300  -76.900000
-0.006000  -76.900000
0.000700  -76.900000
0.003700  -76.900000
0.007500  -77.000000
0.010500  -77.000000
0.011200  -77.000000
0.012000  -77.000000
0.009000  -77.000000
0.005200  -77.000000
0.001500  -77.100000
-0.002300  -77.100000
-0.006800  -77.100000
-0.005300  -77.100000
-0.001500  -77.100000
-0.001500  -77.200000
-0.004600  -77.200000
-0.005300  -77.200000
-0.003800  -77.300000
-0.000800  -77.300000
0.006000  -77.300000
0.006700  -77.300000
0.006700  -77.400000
0.005200  -77.400000
0.000700  -77.400000
0.000700  -77.400000
-0.001500  -77.400000
-0.002300  -77.500000
0.000000  -77.500000
0.001500  -77.500000
0.004500  -77.500000
0.006700  -77.500000
0.004500  -77.600000
0.000700  -77.600000
-0.002300  -77.600000
-0.002300  -77.600000
-0.000800  -77.700000
-0.001500  -77.700000
-0.001500  -77.700000
0.000700  -77.800000
0.003700  -77.800000
0.002200  -77.800000
-0.000800  -77.800000
-0.003800  -77.900000
-0.006800  -77.900000
-0.003000  -77.900000
-0.002300  -77.900000
0.000700  -78.000000
0.005200  -78.000000
0.006700  -78.000000
0.005200  -78.000000
0.005200  -78.000000
0.005200  -78.000000
-0.000800  -78.000000
-0.003800  -78.000000
-0.003000  -78.000000
0.001500  -78.100000
0.008200  -78.100000
0.009700  -78.100000
0.010500  -78.100000
0.009000  -78.100000
0.007500  -78.100000
0.006700  -78.200000
0.008200  -78.200000
0.008200  -78.200000
0.005200  -78.200000
0.004500  -78.200000
0.000700  -78.300000
-0.000800  -78.300000
-0.003800  -78.300000
-0.006800  -78.300000
-0.004600  -78.300000
-0.003000  -78.300000
-0.001500  -78.300000
0.000000  -78.300000
-0.003800  -78.300000
-0.001500  -78.300000
-0.000800  -78.300000
0.000000  -78.300000
0.003000  -78.400000
-0.000800  -78.400000
-0.003000  -78.400000
-0.003800  -78.400000
-0.000800  -78.400000
0.003000  -78.400000
0.000700  -78.400000
0.003000  -78.500000
0.004500  -78.500000
0.005200  -78.500000
0.003000  -78.500000
0.000700  -78.500000
0.003000  -78.500000
0.002200  -78.500000
0.006000  -78.500000
0.005200  -78.500000
0.002200  -78.500000
0.001500  -78.500000
0.000000  -78.500000
-0.000800  -78.500000
-0.000800  -78.500000
0.005200  -78.500000
0.004500  -78.500000
0.001500  -78.500000
0.003000  -78.500000
0.001500  -78.500000
0.003000  -78.500000
0.002200  -78.500000
0.003000  -78.500000
0.004500  -78.500000
0.003000  -78.500000
0.001500  -78.500000
-0.001500  -78.500000
-0.000800  -78.500000
0.003700  -78.500000
0.003700  -78.500000
0.004500  -78.500000
0.008200  -78.500000
0.006700  -78.500000
0.005200  -78.500000
0.006700  -78.500000
0.008200  -78.500000
0.008200  -78.500000
0.004500  -78.500000
-0.000800  -78.500000
-0.002300  -78.500000
-0.005300  -78.500000
-0.003000  -78.500000
-0.000800  -78.600000
0.000000  -78.600000
0.001500  -78.600000
0.000000  -78.600000
0.001500  -78.600000
0.001500  -78.600000
-0.000800  -78.600000
0.000700  -78.600000
-0.002300  -78.600000
-0.000800  -78.600000
-0.000800  -78.700000
0.001500  -78.700000
0.005200  -78.700000
0.004500  -78.700000
0.003700  -78.700000
0.002200  -78.700000
-0.001500  -78.700000
-0.002300  -78.700000
-0.003000  -78.700000
-0.003000  -78.800000
0.001500  -78.800000
0.004500  -78.800000
0.004500  -78.800000
0.003700  -78.800000
0.004500  -78.800000
0.006000  -78.800000
0.007500  -78.800000
0.005200  -78.800000
0.003000  -78.800000
0.004500  -78.800000
0.003700  -78.800000
0.005200  -78.800000
0.005200  -78.800000
0.000700  -78.800000
-0.002300  -78.800000
-0.005300  -78.800000
-0.005300  -78.800000
-0.004600  -78.800000
-0.006800  -78.800000
-0.002300  -78.800000
0.000000  -78.800000
0.000000  -78.800000
0.001500  -78.800000
-0.000800  -78.800000
-0.003000  -78.800000
-0.003000  -78.800000
-0.002300  -78.800000
-0.002300  -78.800000
-0.003800  -78.800000
-0.003000  -78.800000
0.000000  -78.800000
0.003000  -78.800000
0.000700  -78.800000
-0.002300  -78.800000
-0.003000  -78.800000
-0.006000  -78.800000
-0.005300  -78.800000
-0.003000  -78.800000
-0.002300  -78.800000
-0.000800  -78.800000
-0.000800  -78.900000
0.001500  -78.900000
0.003000  -78.900000
0.003700  -78.900000
0.006700  -78.900000
0.005200  -78.900000
0.006000  -78.900000
0.006000  -78.900000
0.005200  -78.900000
0.006000  -78.900000
-0.000800  -78.800000
-0.003000  -78.800000
-0.005300  -78.800000
-0.004600  -78.800000
0.000700  -78.800000
0.005200  -78.800000
0.008200  -78.800000
0.009000  -78.800000
0.006700  -78.800000
0.006700  -78.800000
0.005200  -78.800000
0.005200  -78.800000
0.003000  -78.800000
0.000000  -78.800000
0.001500  -78.800000
0.002200  -78.800000
0.002200  -78.800000
0.004500  -78.800000
0.001500  -78.800000
0.001500  -78.800000
0.000700  -78.800000
0.000700  -78.800000
0.003700  -78.800000
0.003000  -78.800000
0.003700  -78.800000
0.003000  -78.900000
0.000000  -78.900000
0.000700  -78.900000
0.001500  -78.900000
0.002200  -78.900000
-0.000800  -78.900000
-0.002300  -78.900000
0.000700  -78.900000
0.002200  -78.900000
0.003000  -78.900000
0.001500  -78.900000
0.000700  -78.900000
-0.003000  -78.900000
-0.003000  -78.900000
-0.001500  -78.900000
-0.004600  -78.900000
-0.003000  -78.900000
-0.003800  -78.900000
-0.005300  -78.900000
-0.002300  -78.900000
0.000000  -78.900000
0.004500  -78.900000
0.004500  -78.900000
0.003700  -78.900000
0.005200  -78.900000
0.009700  -78.900000
0.009700  -78.900000
0.009000  -78.900000
0.010500  -78.900000
0.006700  -78.900000
0.003700  -78.900000
0.002200  -78.900000
0.003700  -78.900000
0.002200  -78.900000
-0.000800  -78.900000
0.000700  -78.800000
-0.001500  -78.800000
-0.005300  -78.800000
-0.005300  -78.800000
-0.006000  -78.800000
-0.003000  -78.800000
-0.000800  -78.800000
0.000000  -78.800000
0.000000  -78.800000
0.000700  -78.800000
0.004500  -78.800000
0.004500  -78.800000
0.004500  -78.800000
0.002200  -78.800000
0.001500  -78.800000
0.004500  -78.800000
0.005200  -78.800000
0.006000  -78.800000
0.004500  -78.800000
0.000700  -78.900000
0.001500  -78.900000
0.003700  -78.900000
0.003000  -78.900000
0.006000  -78.900000
0.006000  -78.900000
0.009000  -79.000000
0.009000  -79.000000
0.004500  -79.000000
0.002200  -79.000000
-0.003800  -79.000000
-0.003800  -79.100000
-0.000800  -79.100000
0.000700  -79.100000
0.003000  -79.100000
0.000000  -79.100000
-0.002300  -79.100000
-0.001500  -79.100000
0.000700  -79.100000
0.000700  -79.100000
0.001500  -79.100000
0.005200  -79.100000
0.006700  -79.100000
0.006000  -79.100000
0.006700  -79.100000
0.003700  -79.100000
0.003000  -79.100000
-0.002300  -79.100000
-0.004600  -79.100000
-0.001500  -79.100000
-0.000800  -79.100000
0.002200  -79.100000
0.000700  -79.100000
0.002200  -79.100000
0.001500  -79.100000
0.001500  -79.100000
0.001500  -79.100000
-0.006000  -79.100000
-0.003800  -79.100000
-0.003000  -79.100000
0.000700  -79.100000
0.004500  -79.100000
0.005200  -79.100000
0.005200  -79.100000
0.001500  -79.100000
0.001500  -79.100000
0.004500  -79.100000
0.003700  -79.100000
0.003000  -79.100000
0.002200  -79.100000
0.003000  -79.100000
0.004500  -79.100000
0.003700  -79.100000
0.004500  -79.100000
-0.000800  -79.100000
-0.003800  -79.100000
-0.001500  -79.100000
-0.000800  -79.100000
0.000000  -79.100000
-0.000800  -79.100000
-0.004600  -79.100000
-0.003000  -79.100000
-0.000800  -79.100000
0.000700  -79.100000
-0.001500  -79.100000
-0.003000  -79.100000
-0.001500  -79.100000
-0.001500  -79.100000
0.000700  -79.100000
0.005200  -79.100000
0.003700  -79.100000
0.003700  -79.200000
0.002200  -79.200000
0.000700  -79.200000
0.001500  -79.200000
-0.000800  -79.200000
0.000700  -79.100000
0.001500  -79.100000
0.001500  -79.100000
0.000000  -79.100000
0.001500  -79.100000
0.004500  -79.100000
0.006700  -79.100000
0.008200  -79.100000
0.010500  -79.100000
0.012700  -79.100000
0.009000  -79.100000
0.004500  -79.100000
0.000000  -79.100000
-0.001500  -79.100000
-0.001500  -79.100000
-0.003000  -79.100000
-0.003800  -79.100000
-0.005300  -79.100000
-0.007500  -79.100000
-0.006800  -79.000000
-0.006000  -79.000000
-0.003000  -79.000000
-0.000800  -79.000000
-0.000800  -79.000000
-0.001500  -79.000000
-0.000800  -79.000000
0.000700  -79.000000
0.000000  -79.000000
0.004500  -79.000000
0.005200  -79.000000
0.003000  -79.000000
0.005200  -79.000000
0.004500  -78.900000
0.005200  -78.900000
0.004500  -78.900000
0.003000  -78.900000
0.001500  -78.900000
-0.003000  -78.900000
-0.002300  -78.900000
-0.001500  -78.900000
-0.003000  -78.900000
-0.000800  -78.900000
0.000000  -78.900000
0.000000  -78.900000
0.000700  -78.900000
-0.001500  -78.900000
-0.003800  -78.900000
-0.002300  -78.900000
0.001500  -78.900000
0.000700  -78.900000
-0.000800  -78.800000
-0.000800  -78.800000
-0.001500  -78.800000
0.000700  -78.800000
0.003000  -78.800000
0.005200  -78.800000
0.006700  -78.800000
0.002200  -78.800000
0.003000  -78.800000
0.001500  -78.800000
0.001500  -78.800000
0.003000  -78.800000
0.003000  -78.800000
0.006700  -78.800000
0.006700  -78.800000
0.005200  -78.800000
0.004500  -78.800000
0.005200  -78.800000
0.006700  -78.800000
0.004500  -78.800000
0.008200  -78.800000
0.008200  -78.800000
0.004500  -78.800000
0.003700  -78.800000
0.005200  -78.800000
0.006700  -78.800000
0.001500  -78.800000
-0.000800  -78.800000
0.001500  -78.800000
-0.001500  -78.800000
-0.000800  -78.800000
-0.001500  -78.800000
-0.003000  -78.800000
-0.001500  -78.800000
-0.004600  -78.800000
-0.005300  -78.800000
-0.008300  -78.800000
-0.006800  -78.800000
-0.003000  -78.800000
0.000000  -78.800000
0.006000  -78.800000
0.006700  -78.800000
0.001500  -78.800000
-0.001500  -78.800000
-0.003000  -78.800000
-0.005300  -78.800000
-0.006800  -78.800000
-0.001500  -78.800000
-0.000800  -78.800000
-0.000800  -78.800000
-0.002300  -78.800000
-0.004600  -78.800000
-0.002300  -78.800000
0.003000  -78.800000
0.004500  -78.800000
0.007500  -78.800000
0.012000  -78.800000
0.010500  -78.800000
0.009000  -78.800000
0.006000  -78.800000
0.005200  -78.800000
0.005200  -78.800000
0.001500  -78.800000
0.003700  -78.800000
0.006700  -78.800000
0.005200  -78.800000
0.002200  -78.800000
-0.001500  -78.800000
0.003000  -78.800000
0.003000  -78.800000
0.003700  -78.800000
0.004500  -78.800000
0.000000  -78.800000
-0.000800  -78.800000
-0.001500  -78.800000
-0.001500  -78.700000
0.000700  -78.700000
-0.000800  -78.700000
0.000700  -78.700000
0.001500  -78.700000
-0.001500  -78.700000
-0.003000  -78.700000
-0.003800  -78.700000
-0.004600  -78.700000
-0.003800  -78.700000
-0.003800  -78.700000
-0.003000  -78.700000
-0.002300  -78.700000
-0.003000  -78.700000
0.000700  -78.700000
0.004500  -78.700000
0.003000  -78.700000
0.005200  -78.700000
0.004500  -78.700000
0.004500  -78.700000
0.005200  -78.700000
0.003700  -78.700000
0.005200  -78.700000
0.005200  -78.700000
0.009000  -78.700000
0.010500  -78.600000
0.008200  -78.600000
0.010500  -78.600000
0.004500  -78.600000
0.002200  -78.600000
0.000700  -78.600000
0.000700  -78.600000
0.003000  -78.600000
0.002200  -78.600000
0.004500  -78.600000
-0.001500  -78.600000
-0.001500  -78.600000
-0.004600  -78.600000
-0.006000  -78.600000
-0.003000  -78.600000
-0.004600  -78.600000
-0.000800  -78.600000
-0.003000  -78.600000
-0.003800  -78.600000
-0.001500  -78.600000
-0.004600  -78.600000
0.000700  -78.600000
0.000700  -78.600000
0.003000  -78.600000
0.004500  -78.600000
0.000700  -78.700000
0.003700  -78.700000
0.002200  -78.700000
0.001500  -78.700000
0.004500  -78.700000
0.000000  -78.700000
-0.000800  -78.700000
0.001500  -78.700000
0.001500  -78.700000
0.001500  -78.700000
-0.003000  -78.700000
-0.001500  -78.700000
0.000700  -78.700000
0.000700  -78.700000
0.002200  -78.700000
0.000700  -78.700000
0.002200  -78.700000
0.006700  -78.700000
0.003000  -78.700000
0.002200  -78.700000
0.005200  -78.800000
0.006700  -78.800000
0.006700  -78.800000
0.006000  -78.800000
0.004500  -78.800000
0.000700  -78.800000
-0.001500  -78.800000
-0.000800  -78.800000
0.000700  -78.800000
0.004500  -78.800000
0.004500  -78.800000
0.003000  -78.800000
0.000000  -78.800000
0.001500  -78.800000
0.001500  -78.800000
0.000700  -78.800000
0.001500  -78.800000
-0.003000  -78.800000
-0.002300  -78.800000
-0.000800  -78.800000
-0.003000  -78.800000
-0.002300  -78.800000
-0.002300  -78.800000
0.000000  -78.800000
0.000700  -78.800000
-0.000800  -78.800000
0.001500  -78.800000
0.000700  -78.800000
0.003000  -78.800000
0.003000  -78.800000
-0.000800  -78.800000
0.001500  -78.800000
0.003000  -78.800000
0.006700  -78.800000
0.009700  -78.800000
0.006700  -78.800000
0.005200  -78.800000
0.003700  -78.800000
0.002200  -78.800000
0.002200  -78.800000
0.000700  -78.800000
0.001500  -78.800000
0.000700  -78.800000
-0.001500  -78.800000
-0.000800  -78.800000
-0.003800  -78.800000
-0.004600  -78.800000
-0.003000  -78.800000
-0.002300  -78.800000
0.000700  -78.800000
-0.001500  -78.800000
-0.004600  -78.800000
-0.002300  -78.800000
-0.002300  -78.800000
0.003000  -78.800000
0.007500  -78.800000
0.006700  -78.800000
0.005200  -78.800000
0.002200  -78.800000
0.001500  -78.800000
0.000700  -78.800000
0.000000  -78.800000
0.003000  -78.800000
0.004500  -78.800000
0.005200  -78.800000
0.008200  -78.800000
0.006700  -78.800000
0.003700  -78.800000
0.000700  -78.800000
-0.003800  -78.800000
-0.003000  -78.800000
-0.000800  -78.800000
0.003000  -78.800000
0.006700  -78.800000
0.004500  -78.800000
0.004500  -78.800000
0.003000  -78.800000
0.001500  -78.800000
0.000000  -78.800000
0.002200  -78.800000
0.004500  -78.900000
0.003000  -78.900000
0.003000  -78.900000
0.002200  -78.900000
0.001500  -78.900000
0.000700  -78.900000
0.000000  -78.900000
0.001500  -78.900000
0.000700  -78.900000
-0.001500  -78.900000
0.000000  -78.900000
0.000700  -78.900000
0.000700  -78.900000
0.000700  -79.000000
0.000000  -79.000000
0.000000  -79.000000
-0.002300  -79.000000
-0.003800  -79.000000
-0.005300  -79.000000
-0.005300  -79.000000
-0.001500  -79.100000
-0.002300  -79.100000
0.002200  -79.100000
0.001500  -79.100000
0.002200  -79.100000
0.003000  -79.100000
-0.003800  -79.100000
0.003000  -79.100000
0.003700  -79.100000
0.004500  -79.100000
0.003700  -79.100000
-0.004600  -79.100000
-0.004600  -79.100000
-0.006000  -79.100000
-0.000800  -79.100000
0.002200  -79.100000
0.000700  -79.100000
0.005200  -79.100000
0.004500  -79.100000
0.006000  -79.100000
0.006700  -79.100000
0.003700  -79.100000
0.001500  -79.100000
0.001500  -79.100000
0.003000  -79.100000
0.003700  -79.100000
0.004500  -79.100000
0.003700  -79.100000
-0.000800  -79.100000
0.000000  -79.100000
0.000700  -79.100000
-0.000800  -79.100000
0.002200  -79.100000
0.002200  -79.100000
-0.000800  -79.100000
-0.000800  -79.100000
-0.000800  -79.100000
0.001500  -79.100000
0.002200  -79.100000
0.005200  -79.100000
0.007500  -79.200000
0.006000  -79.200000
0.004500  -79.200000
0.007500  -79.200000
0.007500  -79.200000
0.003000  -79.200000
0.003000  -79.200000
-0.000800  -79.200000
-0.000800  -79.200000
0.000000  -79.200000
-0.000800  -79.200000
0.001500  -79.200000
0.000700  -79.200000
0.000700  -79.200000
0.003000  -79.200000
0.004500  -79.200000
0.008200  -79.200000
0.004500  -79.200000
-0.001500  -79.200000
-0.003000  -79.200000
-0.004600  -79.200000
-0.003000  -79.200000
-0.000800  -79.200000
-0.000800  -79.200000
0.002200  -79.200000
-0.000800  -79.200000
-0.003000  -79.200000
0.000700  -79.200000
-0.003000  -79.200000
0.000700  -79.200000
0.001500  -79.100000
-0.002300  -79.100000
-0.001500  -79.100000
0.003000  -79.100000
0.003000  -79.100000
0.001500  -79.100000
0.005200  -79.100000
0.003000  -79.100000
0.001500  -79.100000
0.001500  -79.100000
-0.000800  -79.100000
0.000700  -79.100000
-0.001500  -79.100000
0.000700  -79.100000
-0.001500  -79.100000
-0.002300  -79.100000
0.000000  -79.100000
-0.004600  -79.100000
-0.000800  -79.100000
0.001500  -79.100000
0.003000  -79.100000
0.004500  -79.100000
0.003000  -79.100000
0.003000  -79.100000
0.001500  -79.100000
-0.000800  -79.100000
0.000000  -79.100000
0.000700  -79.100000
0.000000  -79.100000
0.006000  -79.100000
0.006000  -79.200000
0.006700  -79.200000
0.008200  -79.200000
0.002200  -79.200000
0.004500  -79.200000
0.005200  -79.200000
0.005200  -79.200000
0.007500  -79.200000
0.002200  -79.200000
0.004500  -79.200000
0.006000  -79.200000
0.003000  -79.200000
0.002200  -79.200000
-0.002300  -79.200000
-0.003000  -79.200000
-0.000800  -79.200000
-0.001500  -79.200000
-0.001500  -79.200000
0.000700  -79.200000
0.000000  -79.200000
-0.000800  -79.200000
0.004500  -79.200000
0.004500  -79.200000
0.003000  -79.200000
-0.003000  -79.200000
-0.006800  -79.200000
-0.002300  -79.200000
-0.003000  -79.200000
0.000700  -79.200000
0.004500  -79.200000
0.005200  -79.200000
0.006700  -79.200000
0.004500  -79.200000
0.001500  -79.200000
-0.000800  -79.200000
-0.001500  -79.200000
0.000700  -79.200000
0.003000  -79.200000
0.003700  -79.200000
0.003000  -79.200000
0.005200  -79.200000
0.000700  -79.200000
-0.003000  -79.200000
-0.006800  -79.200000
-0.005300  -79.200000
0.001500  -79.200000
0.003700  -79.200000
0.006000  -79.200000
0.003000  -79.200000
0.000700  -79.200000
0.004500  -79.200000
0.000000  -79.200000
-0.003800  -79.200000
-0.003800  -79.200000
-0.004600  -79.200000
0.000700  -79.200000
0.001500  -79.200000
0.000700  -79.300000
0.003700  -79.300000
0.006700  -79.300000
0.005200  -79.300000
0.002200  -79.300000
0.003700  -79.300000
0.001500  -79.300000
-0.000800  -79.300000
0.002200  -79.300000
0.001500  -79.300000
0.001500  -79.300000
0.000700  -79.300000
-0.001500  -79.300000
-0.001500  -79.300000
-0.000800  -79.300000
-0.000800  -79.300000
0.003000  -79.300000
0.003000  -79.300000
0.000700  -79.300000
0.001500  -79.300000
-0.001500  -79.300000
-0.002300  -79.300000
-0.003000  -79.300000
-0.003000  -79.300000
-0.002300  -79.300000
-0.001500  -79.300000
0.004500  -79.300000
0.002200  -79.300000
0.001500  -79.300000
0.005200  -79.300000
0.007500  -79.300000
0.010500  -79.300000
0.006700  -79.300000
0.004500  -79.300000
0.005200  -79.300000
0.003000  -79.300000
0.000000  -79.300000
0.000700  -79.300000
0.001500  -79.300000
0.002200  -79.300000
0.003000  -79.300000
0.003700  -79.300000
0.001500  -79.300000
-0.001500  -79.400000
-0.000800  -79.400000
-0.000800  -79.400000
0.000000  -79.400000
-0.002300  -79.400000
-0.004600  -79.400000
0.000700  -79.400000
0.001500  -79.400000
0.003000  -79.400000
0.004500  -79.400000
0.003000  -79.400000
0.004500  -79.400000
0.004500  -79.400000
0.002200  -79.400000
0.003000  -79.400000
0.000700  -79.400000
0.000000  -79.400000
0.001500  -79.400000
0.003000  -79.400000
0.005200  -79.400000
0.003700  -79.400000
0.001500  -79.400000
-0.000800  -79.400000
-0.001500  -79.400000
-0.000800  -79.400000
-0.001500  -79.400000
-0.000800  -79.400000
0.000700  -79.400000
-0.000800  -79.400000
-0.000800  -79.400000
-0.003000  -79.400000
-0.003000  -79.400000
-0.001500  -79.400000
-0.001500  -79.400000
0.003700  -79.400000
0.004500  -79.400000
0.003000  -79.400000
0.005200  -79.400000
0.004500  -79.400000
0.000700  -79.400000
-0.000800  -79.500000
0.000700  -79.500000
0.002200  -79.500000
0.003000  -79.500000
0.005200  -79.500000
0.006700  -79.500000
0.006700  -79.500000
0.006700  -79.500000
0.005200  -79.500000
0.005200  -79.500000
0.004500  -79.500000
0.004500  -79.500000
0.008200  -79.500000
0.008200  -79.500000
0.006700  -79.500000
0.000700  -79.500000
-0.002300  -79.500000
-0.002300  -79.500000
-0.005300  -79.500000
-0.004600  -79.500000
-0.003000  -79.500000
0.000700  -79.500000
0.001500  -79.500000
0.003000  -79.500000
0.003000  -79.500000
-0.001500  -79.500000
-0.004600  -79.500000
-0.004600  -79.500000
0.000000  -79.500000
0.001500  -79.500000
0.001500  -79.600000
0.001500  -79.600000
-0.000800  -79.600000
-0.003800  -79.600000
-0.007500  -79.600000
-0.007500  -79.600000
-0.006000  -79.600000
-0.004600  -79.600000
-0.004600  -79.600000
-0.004600  -79.600000
0.002200  -79.700000
0.006000  -79.700000
0.006700  -79.700000
0.006700  -79.700000
0.005200  -79.700000
0.004500  -79.700000
0.003000  -79.700000
0.006700  -79.700000
0.009700  -79.700000
0.004500  -79.700000
-0.001500  -79.700000
-0.001500  -79.700000
-0.001500  -79.700000
-0.000800  -79.700000
0.000000  -79.700000
0.002200  -79.700000
0.002200  -79.700000
0.002200  -79.700000
0.005200  -79.700000
0.003700  -79.700000
0.005200  -79.700000
0.006700  -79.700000
0.006700  -79.700000
0.008200  -79.700000
0.006700  -79.700000
0.004500  -79.700000
0.000700  -79.700000
-0.000800  -79.700000
-0.001500  -79.700000
-0.001500  -79.700000
-0.003000  -79.800000
-0.005300  -79.800000
-0.003800  -79.800000
-0.000800  -79.800000
0.001500  -79.800000
0.003700  -79.800000
0.005200  -79.800000
0.006700  -79.800000
0.005200  -79.800000
0.000700  -79.800000
-0.001500  -79.900000
-0.001500  -79.900000
-0.000800  -79.900000
-0.003000  -79.900000
-0.005300  -79.900000
-0.003000  -79.900000
-0.002300  -79.900000
-0.001500  -79.900000
-0.002300  -79.900000
-0.003000  -79.900000
-0.000800  -79.900000
-0.001500  -79.900000
-0.000800  -79.900000
-0.001500  -79.900000
-0.005300  -79.900000
-0.004600  -79.900000
-0.003000  -79.900000
0.001500  -79.900000
0.006000  -79.900000
0.011200  -79.900000
0.012000  -79.900000
0.011200  -79.900000
0.009000  -79.900000
0.007500  -79.900000
0.011200  -79.900000
0.010500  -79.900000
0.006700  -79.900000
0.003700  -79.900000
0.001500  -79.900000
0.000700  -79.900000
0.000700  -80.000000
0.000000  -80.000000
0.000700  -80.000000
0.001500  -80.000000
-0.003000  -80.000000
-0.005300  -80.000000
-0.004600  -80.000000
-0.005300  -80.000000
-0.001500  -80.000000
0.000700  -80.000000
0.000700  -80.100000
0.001500  -80.100000
-0.000800  -80.100000
-0.001500  -80.100000
-0.004600  -80.100000
-0.001500  -80.100000
0.004500  -80.100000
0.008200  -80.100000
0.009000  -80.100000
0.005200  -80.100000
0.006700  -80.100000
0.008200  -80.100000
0.006700  -80.100000
0.008200  -80.100000
0.006000  -80.100000
0.001500  -80.100000
-0.000800  -80.100000
-0.002300  -80.100000
-0.000800  -80.200000
0.000700  -80.200000
0.001500  -80.200000
0.001500  -80.200000
0.000700  -80.200000
0.003000  -80.200000
-0.000800  -80.200000
-0.006000  -80.200000
-0.004600  -80.200000
-0.003000  -80.200000
-0.001500  -80.200000
0.000000  -80.200000
0.001500  -80.200000
0.000000  -80.200000
-0.003800  -80.200000
-0.002300  -80.200000
-0.003000  -80.200000
-0.001500  -80.200000
0.003000  -80.200000
0.005200  -80.200000
0.004500  -80.200000
0.002200  -80.200000
0.000700  -80.300000
-0.000800  -80.300000
0.000000  -80.300000
0.000700  -80.300000
0.000700  -80.300000
0.000700  -80.300000
0.000000  -80.300000
0.003000  -80.300000
0.005200  -80.300000
0.004500  -80.300000
0.003000  -80.300000
0.001500  -80.300000
0.001500  -80.300000
0.002200  -80.300000
0.002200  -80.300000
0.000000  -80.300000
-0.001500  -80.300000
0.002200  -80.300000
0.006000  -80.300000
0.005200  -80.300000
0.005200  -80.400000
0.005200  -80.400000
0.005200  -80.400000
0.002200  -80.400000
0.000700  -80.400000
0.000000  -80.400000
0.000000  -80.400000
-0.001500  -80.400000
-0.004600  -80.400000
-0.004600  -80.400000
-0.004600  -80.400000
-0.000800  -80.400000
0.000700  -80.400000
-0.001500  -80.400000
-0.001500  -80.400000
-0.001500  -80.400000
0.006700  -80.400000
0.006700  -80.500000
0.004500  -80.500000
0.001500  -80.500000
-0.003800  -80.500000
-0.000800  -80.500000
-0.000800  -80.500000
0.001500  -80.500000
0.000700  -80.500000
0.000000  -80.500000
0.004500  -80.500000
0.008200  -80.500000
0.009000  -80.500000
0.009000  -80.500000
0.008200  -80.500000
0.009000  -80.500000
0.009000  -80.500000
0.005200  -80.500000
0.004500  -80.500000
-0.000800  -80.600000
-0.004600  -80.600000
-0.003000  -80.600000
-0.003800  -80.600000
-0.001500  -80.600000
-0.001500  -80.600000
0.000700  -80.600000
0.003000  -80.600000
0.003000  -80.600000
0.006000  -80.600000
0.000000  -80.600000
-0.002300  -80.600000
-0.000800  -80.600000
-0.003000  -80.600000
-0.003000  -80.600000
-0.002300  -80.600000
0.002200  -80.600000
0.002200  -80.600000
0.001500  -80.600000
0.003000  -80.600000
0.000000  -80.600000
-0.005300  -80.600000
-0.009100  -80.600000
-0.009100  -80.600000
-0.008300  -80.600000
-0.006000  -80.700000
-0.003800  -80.700000
-0.001500  -80.700000
-0.001500  -80.700000
-0.000800  -80.700000
-0.000800  -80.700000
-0.002300  -80.700000
0.002200  -80.700000
0.006000  -80.700000
0.009000  -80.700000
0.012700  -80.700000
0.014200  -80.700000
0.015700  -80.700000
0.015700  -80.700000
0.015700  -80.700000
0.010500  -80.700000
0.005200  -80.700000
0.008200  -80.700000
0.006700  -80.700000
0.004500  -80.700000
0.001500  -80.800000
0.000700  -80.800000
0.003000  -80.800000
0.002200  -80.800000
0.001500  -80.800000
0.002200  -80.800000
0.003000  -80.800000
0.004500  -80.800000
0.000700  -80.800000
-0.003000  -80.800000
-0.005300  -80.800000
-0.003800  -80.800000
0.000700  -80.800000
-0.000800  -80.800000
-0.000800  -80.800000
-0.004600  -80.800000
-0.006800  -80.800000
-0.007500  -80.800000
-0.007500  -80.800000
-0.003000  -80.800000
-0.001500  -80.800000
0.000700  -80.800000
0.001500  -80.800000
-0.000800  -80.800000
0.001500  -80.800000
0.001500  -80.800000
0.002200  -80.800000
0.004500  -80.800000
-0.000800  -80.800000
-0.003000  -80.800000
-0.004600  -80.800000
-0.006000  -80.800000
-0.005300  -80.800000
-0.005300  -80.800000
-0.003000  -80.800000
0.002200  -80.800000
0.006000  -80.800000
0.010500  -80.800000
0.012700  -80.800000
0.014200  -80.800000
0.009700  -80.900000
0.005200  -80.900000
0.005200  -80.900000
0.002200  -80.900000
0.003000  -80.900000
0.005200  -80.900000
0.003000  -80.900000
0.004500  -80.900000
0.003000  -80.900000
0.003700  -80.900000
0.003000  -80.900000
0.000700  -80.900000
-0.000800  -80.900000
-0.003800  -80.900000
-0.003000  -80.900000
-0.000800  -80.900000
0.000700  -80.900000
0.000700  -80.900000
-0.003000  -80.900000
-0.005300  -80.900000
-0.004600  -80.900000
-0.001500  -80.900000
-0.000800  -80.900000
0.001500  -80.900000
0.001500  -80.900000
-0.000800  -80.900000
-0.003000  -80.900000
-0.005300  -80.900000
-0.004600  -80.900000
-0.004600  -80.900000
-0.007500  -80.800000
-0.005300  -80.800000
-0.001500  -80.800000
0.001500  -80.800000
0.005200  -80.800000
0.008200  -80.800000
0.010500  -80.800000
0.012000  -80.800000
0.011200  -80.800000
0.012700  -80.800000
0.012700  -80.800000
0.014200  -80.800000
0.012000  -80.800000
0.008200  -80.800000
0.008200  -80.800000
0.001500  -80.800000
0.000700  -80.800000
0.001500  -80.800000
-0.002300  -80.800000
-0.003000  -80.800000
-0.003800  -80.800000
-0.004600  -80.800000
-0.003800  -80.800000
-0.000800  -80.800000
0.001500  -80.800000
0.001500  -80.800000
0.002200  -80.800000
0.003000  -80.800000
0.008200  -80.800000
0.008200  -80.800000
0.008200  -80.800000
0.005200  -80.800000
-0.000800  -80.800000
0.002200  -80.800000
0.000700  -80.800000
-0.003000  -80.800000
-0.004600  -80.800000
-0.006800  -80.800000
-0.004600  -80.800000
-0.003800  -80.800000
-0.004600  -80.800000
-0.000800  -80.800000
0.000700  -80.800000
-0.001500  -80.800000
0.000000  -80.800000
0.000700  -80.800000
-0.001500  -80.800000
-0.001500  -80.800000
-0.003000  -80.800000
0.000700  -80.800000
0.003000  -80.900000
0.008200  -80.900000
0.008200  -80.900000
0.003700  -80.900000
0.006700  -80.900000
0.003000  -80.900000
0.001500  -80.900000
-0.001500  -80.900000
-0.002300  -80.900000
0.000700  -80.900000
-0.002300  -80.900000
-0.000800  -80.900000
-0.001500  -80.900000
-0.000800  -80.900000
0.000700  -80.900000
-0.000800  -80.900000
0.000700  -80.900000
-0.004600  -80.900000
-0.006800  -80.900000
-0.004600  -80.900000
-0.003000  -81.000000
0.003000  -81.000000
0.004500  -81.000000
0.001500  -81.000000
-0.000800  -81.000000
-0.000800  -81.000000
0.002200  -81.000000
0.006700  -81.000000
0.009700  -81.000000
0.008200  -81.000000
0.000700  -81.000000
-0.001500  -81.000000
-0.001500  -81.000000
-0.002300  -81.000000
0.002200  -81.000000
0.003000  -81.000000
0.005200  -81.000000
0.003700  -81.000000
0.000000  -81.000000
0.001500  -81.000000
0.000000  -81.000000
0.005200  -81.000000
0.008200  -81.000000
0.009000  -81.000000
0.008200  -81.000000
0.007500  -81.000000
0.009000  -81.000000
0.003700  -81.000000
0.003000  -81.000000
0.001500  -81.000000
0.003000  -81.000000
0.001500  -81.000000
-0.001500  -81.000000
-0.001500  -81.000000
-0.005300  -81.000000
-0.004600  -81.000000
-0.005300  -81.000000
-0.003000  -81.000000
0.003000  -81.000000
0.003700  -81.000000
0.004500  -81.000000
0.001500  -81.000000
0.003000  -81.000000
0.005200  -81.000000
0.005200  -81.000000
0.006700  -81.000000
0.004500  -81.000000
0.004500  -81.000000
0.003000  -81.000000
0.001500  -81.000000
-0.004600  -81.000000
-0.011300  -81.000000
-0.013500  -81.000000
-0.010500  -81.000000
-0.005300  -81.000000
0.002200  -81.000000
0.009700  -81.000000
0.012700  -81.000000
0.018000  -81.000000
0.021700  -81.000000
0.020200  -81.000000
0.021000  -81.000000
0.014200  -81.000000
0.003700  -81.000000
-0.001500  -81.000000
-0.003000  -81.000000
-0.005300  -81.000000
-0.002300  -81.000000
-0.000800  -81.000000
-0.001500  -81.000000
-0.001500  -81.000000
-0.001500  -81.000000
0.000000  -81.000000
-0.000800  -81.000000
-0.000800  -81.000000
-0.001500  -81.000000
-0.003800  -81.000000
-0.003800  -81.000000
-0.005300  -81.000000
-0.003000  -81.000000
-0.002300  -81.000000
0.000000  -81.000000
0.004500  -81.000000
0.001500  -81.000000
-0.001500  -81.000000
-0.001500  -81.000000
-0.001500  -81.000000
-0.002300  -81.000000
-0.004600  -81.000000
-0.003000  -81.000000
-0.003000  -80.900000
-0.000800  -80.900000
0.004500  -80.900000
0.006000  -80.900000
0.005200  -80.900000
0.006000  -80.900000
0.005200  -80.900000
0.006700  -80.900000
0.008200  -80.900000
0.006700  -80.900000
0.001500  -80.900000
-0.000800  -80.900000
-0.003000  -80.900000
-0.010500  -80.900000
-0.013500  -80.900000
-0.009800  -80.900000
-0.005300  -80.900000
0.000000  -80.900000
0.001500  -80.900000
0.000700  -80.900000
-0.001500  -80.900000
0.000700  -80.900000
0.004500  -80.900000
0.004500  -80.900000
0.005200  -80.900000
0.001500  -80.900000
-0.002300  -80.900000
-0.001500  -80.900000
0.000700  -80.900000
0.007500  -80.900000
0.006000  -80.900000
0.001500  -80.900000
0.000000  -80.900000
0.001500  -80.900000
0.005200  -80.900000
0.008200  -80.900000
0.008200  -80.900000
0.006700  -80.900000
0.004500  -80.900000
0.000700  -80.900000
-0.003800  -80.900000
-0.004600  -80.900000
-0.003000  -80.900000
0.000000  -80.900000
0.000700  -80.900000
-0.000800  -80.900000
-0.000800  -80.900000
-0.001500  -80.900000
-0.001500  -80.900000
-0.001500  -80.900000
-0.000800  -80.900000
0.000700  -80.900000
0.002200  -80.900000
0.004500  -80.900000
-0.000800  -80.900000
-0.001500  -80.900000
-0.000800  -80.900000
0.000000  -80.900000
0.005200  -80.900000
0.006700  -80.900000
0.006700  -80.900000
0.008200  -80.900000
0.004500  -80.900000
0.001500  -80.900000
-0.003000  -80.900000
-0.001500  -80.900000
-0.000800  -80.900000
-0.005300  -80.900000
-0.003000  -80.900000
-0.000800  -80.900000
0.006700  -80.900000
0.012000  -80.900000
0.012000  -80.900000
0.012700  -80.900000
0.007500  -80.800000
-0.003000  -80.800000
-0.006800  -80.800000
-0.007500  -80.800000
0.000000  -80.800000
0.009000  -80.800000
0.010500  -80.800000
0.012000  -80.800000
0.015000  -80.800000
0.015000  -80.800000
0.012700  -80.800000
0.009000  -80.800000
0.004500  -80.800000
-0.002300  -80.700000
-0.012800  -80.700000
-0.021800  -80.700000
-0.023300  -80.700000
-0.019500  -80.700000
-0.014300  -80.700000
-0.008300  -80.700000
-0.001500  -80.700000
0.000000  -80.600000
-0.001500  -80.600000
-0.001500  -80.600000
-0.004600  -80.600000
-0.009800  -80.600000
-0.012000  -80.600000
-0.008300  -80.600000
-0.002300  -80.600000
0.003000  -80.600000
0.009700  -80.600000
0.012700  -80.500000
0.018000  -80.500000
0.021700  -80.500000
0.021700  -80.500000
0.019500  -80.500000
0.012000  -80.500000
0.003700  -80.500000
-0.000800  -80.400000
-0.001500  -80.400000
0.000000  -80.400000
0.003000  -80.400000
0.007500  -80.400000
0.005200  -80.400000
-0.005300  -80.300000
-0.012000  -80.300000
-0.012000  -80.300000
-0.010500  -80.300000
-0.006800  -80.300000
-0.009100  -80.200000
-0.006000  -80.200000
-0.000800  -80.200000
0.006000  -80.200000
0.017200  -80.200000
0.019500  -80.200000
0.015700  -80.100000
0.008200  -80.100000
0.006700  -80.100000
0.005200  -80.100000
-0.000800  -80.100000
-0.000800  -80.100000
-0.003000  -80.000000
-0.003000  -80.000000
-0.003000  -80.000000
-0.000800  -80.000000
0.003000  -79.900000
-0.000800  -79.900000
0.000000  -79.900000
-0.001500  -79.900000
-0.003000  -79.800000
0.000700  -79.800000
-0.001500  -79.800000
-0.000800  -79.800000
0.000700  -79.800000
0.000000  -79.700000
0.000000  -79.700000
0.000000  -79.700000
0.000700  -79.700000
-0.003000  -79.600000
-0.001500  -79.600000
0.000700  -79.600000
-0.001500  -79.500000
0.003700  -79.500000
0.007500  -79.400000
0.012700  -79.400000
0.015700  -79.400000
0.012000  -79.300000
0.006000  -79.300000
-0.002300  -79.200000
-0.001500  -79.200000
0.001500  -79.200000
-0.000800  -79.200000
0.000700  -79.100000
0.003700  -79.100000
0.006700  -79.100000
0.010500  -79.000000
0.016500  -79.000000
0.019500  -78.900000
0.009700  -78.900000
0.000000  -78.800000
-0.005300  -78.800000
-0.006800  -78.700000
-0.006800  -78.700000
-0.008300  -78.600000
-0.012000  -78.500000
-0.015800  -78.500000
-0.014300  -78.400000
-0.007500  -78.400000
-0.000800  -78.300000
0.000700  -78.300000
-0.000800  -78.200000
0.001500  -78.200000
0.003000  -78.100000
0.003000  -78.100000
0.006700  -78.000000
0.008200  -77.900000
0.012000  -77.900000
0.010500  -77.900000
0.008200  -77.800000
0.005200  -77.700000
0.000000  -77.600000
-0.004600  -77.500000
-0.004600  -77.500000
-0.003000  -77.400000
-0.003000  -77.400000
-0.003000  -77.300000
-0.004600  -77.200000
-0.010500  -77.200000
-0.014300  -77.100000
-0.014300  -77.000000
-0.009100  -77.000000
-0.003000  -76.900000
-0.000800  -76.800000
0.004500  -76.800000
0.014200  -76.700000
0.016500  -76.600000
0.015000  -76.500000
0.012700  -76.500000
0.005200  -76.400000
0.001500  -76.300000
-0.001500  -76.200000
-0.000800  -76.200000
0.006700  -76.100000
0.018700  -76.000000
0.021700  -76.000000
0.016500  -75.900000
0.010500  -75.800000
0.007500  -75.700000
0.003000  -75.600000
-0.002300  -75.600000
-0.003000  -75.500000
-0.006800  -75.400000
-0.007500  -75.400000
-0.004600  -75.300000
-0.007500  -75.200000
-0.006800  -75.200000
-0.009100  -75.100000
-0.006800  -75.000000
0.000000  -74.900000
0.006700  -74.800000
0.010500  -74.700000
0.008200  -74.700000
0.010500  -74.600000
0.008200  -74.500000
0.003700  -74.400000
0.006000  -74.300000
-0.000800  -74.300000
-0.006000  -74.200000
-0.006800  -74.100000
-0.005300  -74.000000
-0.006800  -73.900000
-0.010500  -73.800000
-0.008300  -73.800000
-0.006800  -73.700000
-0.000800  -73.600000
0.004500  -73.500000
0.006700  -73.400000
0.009700  -73.400000
0.004500  -73.300000
0.003000  -73.200000
0.000700  -73.100000
0.000700  -73.000000
0.003000  -72.900000
0.004500  -72.900000
0.010500  -72.800000
0.010500  -72.700000
0.012000  -72.600000
0.010500  -72.500000
0.006000  -72.400000
0.004500  -72.300000
0.001500  -72.200000
-0.001500  -72.100000
-0.004600  -72.100000
-0.006000  -72.000000
-0.009100  -71.900000
-0.009100  -71.800000
-0.006800  -71.700000
-0.001500  -71.600000
0.004500  -71.600000
0.009700  -71.500000
0.015700  -71.400000
0.015700  -71.300000
0.013500  -71.200000
0.010500  -71.100000
0.004500  -71.000000
0.000700  -70.900000
-0.003000  -70.800000
-0.008300  -70.700000
-0.007500  -70.700000
-0.006800  -70.600000
-0.005300  -70.500000
-0.002300  -70.400000
-0.003800  -70.300000
-0.000800  -70.200000
0.002200  -70.100000
0.004500  -70.000000
0.008200  -69.900000
0.005200  -69.800000
0.005200  -69.800000
0.003000  -69.700000
-0.001500  -69.600000
-0.002300  -69.500000
-0.001500  -69.400000
0.004500  -69.300000
0.012000  -69.200000
0.011200  -69.100000
0.008200  -69.000000
0.002200  -68.900000
-0.003000  -68.900000
-0.009100  -68.800000
-0.012000  -68.700000
-0.004600  -68.600000
-0.001500  -68.500000
0.000000  -68.400000
0.003000  -68.300000
0.001500  -68.200000
0.004500  -68.100000
0.004500  -68.000000
0.003700  -68.000000
0.000700  -67.900000
-0.003800  -67.800000
-0.006800  -67.700000
-0.009100  -67.600000
-0.006800  -67.500000
-0.008300  -67.500000
-0.004600  -67.400000
0.000000  -67.300000
-0.004600  -67.200000
0.000000  -67.100000
0.004500  -67.100000
0.015700  -67.000000
0.024700  -66.900000
0.024000  -66.800000
0.019500  -66.700000
0.006700  -66.700000
-0.001500  -66.600000
-0.005300  -66.500000
-0.006800  -66.400000
-0.003000  -66.400000
-0.004600  -66.300000
-0.004600  -66.200000
-0.002300  -66.200000
-0.000800  -66.100000
0.003000  -66.000000
0.006700  -66.000000
0.009000  -65.900000
0.006700  -65.800000
0.003000  -65.700000
-0.007500  -65.700000
-0.014300  -65.600000
-0.014300  -65.500000
-0.010500  -65.500000
0.001500  -65.400000
0.009000  -65.300000
0.012700  -65.300000
0.014200  -65.200000
0.009000  -65.100000
-0.000800  -65.000000
-0.004600  -65.000000
-0.003000  -64.900000
0.001500  -64.800000
0.005200  -64.800000
0.011200  -64.700000
0.015700  -64.600000
0.012000  -64.500000
0.006700  -64.500000
0.002200  -64.400000
0.001500  -64.300000
0.000700  -64.300000
-0.004600  -64.200000
-0.001500  -64.100000
-0.006800  -64.000000
-0.009800  -63.900000
-0.006800  -63.900000
-0.007500  -63.800000
-0.001500  -63.800000
0.001500  -63.700000
0.006000  -63.600000
0.009700  -63.500000
0.014200  -63.500000
0.018000  -63.400000
0.008200  -63.300000
0.003000  -63.300000
-0.005300  -63.200000
-0.010500  -63.100000
-0.012800  -63.000000
-0.014300  -63.000000
-0.008300  -62.900000
-0.004600  -62.800000
0.006000  -62.800000
0.010500  -62.700000
0.009000  -62.600000
0.005200  -62.600000
-0.003000  -62.500000
-0.006800  -62.400000
-0.009100  -62.400000
-0.010500  -62.300000
-0.008300  -62.200000
-0.004600  -62.100000
-0.001500  -62.100000
0.001500  -62.000000
0.006700  -62.000000
0.003700  -61.900000
-0.000800  -61.800000
0.003000  -61.800000
0.007500  -61.700000
0.014200  -61.700000
0.015700  -61.600000
0.012700  -61.500000
0.008200  -61.500000
0.004500  -61.400000
-0.004600  -61.300000
-0.012800  -61.300000
-0.014300  -61.200000
-0.018100  -61.200000
-0.015800  -61.100000
-0.008300  -61.000000
0.001500  -61.000000
0.012700  -60.900000
0.017200  -60.800000
0.023200  -60.800000
0.027000  -60.700000
0.026200  -60.600000
0.020200  -60.600000
0.010500  -60.500000
0.000700  -60.400000
-0.005300  -60.300000
-0.000800  -60.300000
0.006700  -60.200000
0.001500  -60.100000
-0.008300  -60.100000
-0.012800  -60.000000
-0.015800  -59.900000
-0.015800  -59.900000
-0.012000  -59.800000
-0.006000  -59.700000
0.002200  -59.700000
0.012000  -59.600000
0.019500  -59.500000
0.020200  -59.500000
0.009000  -59.400000
0.000700  -59.400000
0.000700  -59.300000
-0.000800  -59.200000
-0.000800  -59.100000
0.001500  -59.100000
0.003700  -59.000000
0.003000  -59.000000
-0.001500  -58.900000
-0.007500  -58.800000
-0.010500  -58.800000
-0.011300  -58.700000
-0.010500  -58.600000
-0.009100  -58.500000
-0.008300  -58.500000
-0.004600  -58.400000
0.002200  -58.400000
0.008200  -58.300000
0.012000  -58.200000
0.014200  -58.200000
0.019500  -58.100000
0.027000  -58.100000
0.023200  -58.000000
0.012000  -57.900000
-0.001500  -57.800000
-0.012000  -57.800000
-0.020300  -57.700000
-0.023300  -57.600000
-0.018800  -57.600000
-0.012800  -57.500000
-0.000800  -57.500000
0.008200  -57.400000
0.013500  -57.300000
0.012000  -57.200000
0.006700  -57.200000
0.009000  -57.100000
0.007500  -57.100000
0.010500  -57.000000
0.018000  -56.900000
0.023200  -56.800000
0.030700  -56.700000
0.030700  -56.700000
0.024700  -56.600000
0.010500  -56.500000
0.002200  -56.400000
-0.006000  -56.300000
-0.014300  -56.300000
-0.015000  -56.200000
-0.018800  -56.100000
-0.012800  -56.000000
-0.012000  -55.900000
-0.012800  -55.800000
-0.012000  -55.800000
-0.015000  -55.700000
-0.007500  -55.600000
0.000700  -55.500000
0.008200  -55.400000
0.009000  -55.400000
-0.003000  -55.300000
-0.010500  -55.200000
-0.016500  -55.100000
-0.016500  -55.000000
-0.013500  -54.900000
-0.007500  -54.900000
-0.000800  -54.800000
0.002200  -54.700000
0.006700  -54.600000
0.005200  -54.500000
0.010500  -54.400000
0.012700  -54.300000
0.006700  -54.200000
0.000000  -54.100000
-0.009100  -54.100000
-0.001500  -54.000000
0.000700  -53.900000
-0.006800  -53.800000
-0.003000  -53.700000
0.000700  -53.600000
0.012700  -53.600000
0.024000  -53.500000
0.027000  -53.400000
0.029200  -53.300000
0.024000  -53.200000
0.014200  -53.100000
0.001500  -53.000000
-0.010500  -52.900000
-0.015800  -52.800000
-0.012800  -52.700000
-0.009100  -52.600000
-0.000800  -52.500000
0.006700  -52.400000
0.009000  -52.300000
0.008200  -52.200000
0.003000  -52.200000
-0.006800  -52.100000
-0.010500  -52.000000
-0.010500  -51.900000
-0.003800  -51.800000
0.010500  -51.700000
0.021000  -51.600000
0.029200  -51.500000
0.028500  -51.400000
0.014200  -51.300000
-0.000800  -51.200000
-0.012800  -51.100000
-0.018100  -51.000000
-0.018100  -50.900000
-0.014300  -50.800000
-0.007500  -50.700000
-0.007500  -50.600000
-0.007500  -50.500000
-0.006000  -50.400000
-0.003000  -50.300000
-0.003000  -50.200000
-0.003800  -50.100000
-0.002300  -50.000000
-0.006000  -49.900000
-0.003800  -49.800000
-0.000800  -49.700000
0.005200  -49.600000
0.012700  -49.500000
0.003000  -49.400000
-0.006800  -49.300000
-0.011300  -49.200000
-0.009800  -49.100000
-0.002300  -49.000000
0.003000  -48.900000
0.014200  -48.800000
0.024000  -48.700000
0.027000  -48.600000
0.024000  -48.500000
0.012700  -48.400000
0.004500  -48.300000
-0.000800  -48.200000
-0.003000  -48.100000
-0.000800  -48.000000
-0.003000  -47.900000
-0.006800  -47.800000
-0.012800  -47.700000
-0.018100  -47.600000
-0.014300  -47.500000
-0.003800  -47.400000
0.016500  -47.300000
0.024000  -47.200000
0.019500  -47.100000
0.013500  -47.000000
0.001500  -46.800000
-0.006800  -46.800000
-0.017300  -46.700000
-0.014300  -46.600000
-0.004600  -46.400000
-0.000800  -46.400000
0.005200  -46.300000
0.005200  -46.200000
0.012000  -46.000000
0.012700  -45.900000
0.008200  -45.900000
0.009000  -45.800000
0.001500  -45.700000
-0.002300  -45.500000
-0.003000  -45.500000
-0.006800  -45.400000
-0.004600  -45.300000
-0.006000  -45.100000
-0.007500  -45.000000
-0.006800  -45.000000
-0.001500  -44.800000
0.003700  -44.700000
0.000700  -44.600000
0.003000  -44.600000
0.003000  -44.400000
-0.000800  -44.300000
-0.005300  -44.200000
-0.006800  -44.100000
-0.004600  -44.000000
-0.008300  -43.900000
-0.010500  -43.800000
-0.009100  -43.700000
-0.001500  -43.700000
0.011200  -43.500000
0.021700  -43.400000
0.031500  -43.300000
0.030700  -43.200000
0.024000  -43.100000
0.016500  -43.000000
0.005200  -42.900000
-0.002300  -42.800000
-0.007500  -42.700000
-0.005300  -42.600000
-0.003000  -42.500000
-0.002300  -42.400000
-0.001500  -42.300000
-0.005300  -42.200000
-0.004600  -42.100000
-0.006800  -42.000000
-0.021800  -41.900000
-0.030000  -41.800000
-0.024000  -41.700000
-0.012000  -41.600000
0.000000  -41.500000
0.014200  -41.400000
0.027700  -41.300000
0.041200  -41.200000
0.049500  -41.100000
0.044200  -41.000000
0.025500  -40.900000
0.000700  -40.800000
-0.009800  -40.700000
-0.008300  -40.600000
-0.009100  -40.500000
-0.006000  -40.400000
-0.003800  -40.300000
0.000700  -40.200000
0.004500  -40.100000
-0.006800  -40.000000
-0.015800  -39.900000
-0.019500  -39.800000
-0.028500  -39.700000
-0.036100  -39.600000
-0.029300  -39.500000
-0.006800  -39.400000
0.010500  -39.300000
0.018000  -39.200000
0.021000  -39.100000
0.021700  -39.000000
0.028500  -38.900000
0.042000  -38.800000
0.046500  -38.700000
0.030700  -38.700000
0.012700  -38.600000
0.007500  -38.500000
0.009700  -38.300000
0.014200  -38.300000
0.010500  -38.200000
0.000000  -38.100000
-0.018800  -38.000000
-0.033000  -37.900000
-0.033000  -37.800000
-0.027000  -37.700000
-0.008300  -37.600000
0.003000  -37.500000
0.008200  -37.400000
0.005200  -37.400000
0.004500  -37.300000
0.018000  -37.200000
0.023200  -37.100000
0.025500  -37.000000
0.015700  -36.900000
0.005200  -36.900000
0.006700  -36.800000
0.004500  -36.700000
0.001500  -36.600000
-0.012000  -36.500000
-0.024800  -36.400000
-0.030800  -36.300000
-0.035300  -36.200000
-0.030000  -36.100000
-0.025600  -36.000000
-0.016500  -36.000000
-0.005300  -35.900000
0.000700  -35.800000
0.012000  -35.700000
0.018000  -35.600000
0.015700  -35.600000
0.008200  -35.500000
-0.003000  -35.400000
-0.013500  -35.300000
-0.016500  -35.200000
-0.007500  -35.100000
0.009700  -35.100000
0.019500  -35.000000
0.023200  -34.900000
0.030700  -34.800000
0.038200  -34.700000
0.041200  -34.700000
0.024000  -34.600000
0.000700  -34.500000
-0.014300  -34.400000
-0.023300  -34.300000
-0.025600  -34.200000
-0.027000  -34.200000
-0.026300  -34.100000
-0.024000  -34.000000
-0.020300  -34.000000
-0.000800  -33.900000
0.013500  -33.800000
0.012000  -33.800000
0.002200  -33.700000
-0.008300  -33.600000
-0.011300  -33.500000
-0.003800  -33.500000
0.008200  -33.400000
0.012000  -33.300000
0.009700  -33.300000
0.010500  -33.200000
0.006700  -33.100000
0.006700  -33.000000
0.014200  -32.900000
0.019500  -32.900000
0.024000  -32.800000
0.024700  -32.800000
0.012700  -32.700000
-0.005300  -32.600000
-0.016500  -32.500000
-0.024000  -32.500000
-0.025600  -32.400000
-0.020300  -32.300000
-0.018100  -32.300000
-0.011300  -32.200000
-0.001500  -32.100000
0.008200  -32.000000
0.017200  -32.000000
0.018000  -31.900000
0.009000  -31.900000
-0.006800  -31.800000
-0.019500  -31.700000
-0.024000  -31.600000
-0.016500  -31.500000
-0.003000  -31.500000
0.002200  -31.400000
0.012000  -31.400000
0.023200  -31.300000
0.025500  -31.200000
0.033000  -31.100000
0.033000  -31.100000
0.021000  -31.000000
0.009700  -30.900000
0.003000  -30.900000
-0.006000  -30.800000
-0.018100  -30.700000
-0.015800  -30.600000
-0.012000  -30.600000
-0.003000  -30.500000
0.006700  -30.500000
0.007500  -30.400000
0.009000  -30.300000
0.011200  -30.200000
0.009000  -30.200000
0.006700  -30.100000
0.010500  -30.100000
0.012000  -30.000000
0.009700  -29.900000
0.005200  -29.900000
-0.006000  -29.800000
-0.014300  -29.800000
-0.016500  -29.700000
-0.014300  -29.700000
-0.003000  -29.600000
0.004500  -29.500000
0.008200  -29.500000
0.009700  -29.400000
0.003000  -29.300000
-0.005300  -29.300000
-0.014300  -29.300000
-0.025600  -29.200000
-0.023300  -29.100000
-0.015000  -29.100000
0.000000  -29.000000
0.010500  -29.000000
0.006000  -28.900000
0.008200  -28.800000
0.003700  -28.800000
-0.007500  -28.800000
-0.012800  -28.700000
-0.009100  -28.700000
0.009700  -28.600000
0.021000  -28.500000
0.018000  -28.500000
0.009700  -28.400000
0.012700  -28.400000
0.018700  -28.400000
0.019500  -28.300000
0.012700  -28.300000
0.001500  -28.200000
0.000700  -28.100000
-0.009100  -28.100000
-0.015800  -28.000000
-0.010500  -28.000000
-0.009800  -27.900000
-0.003000  -27.900000
-0.008300  -27.900000
-0.009800  -27.800000
-0.008300  -27.800000
-0.015800  -27.700000
-0.011300  -27.700000
-0.003800  -27.600000
0.010500  -27.500000
0.021700  -27.500000
0.029200  -27.500000
0.038200  -27.400000
0.024000  -27.400000
0.003700  -27.300000
-0.006800  -27.300000
-0.010500  -27.200000
0.005200  -27.200000
0.035200  -27.100000
0.052500  -27.100000
0.042000  -27.000000
0.027000  -27.000000
0.001500  -27.000000
-0.023300  -26.900000
-0.041300  -26.900000
-0.057800  -26.900000
-0.061500  -26.800000
-0.063000  -26.800000
-0.051100  -26.700000
-0.029300  -26.700000
-0.011300  -26.600000
0.006700  -26.600000
0.006700  -26.600000
0.008200  -26.500000
0.018000  -26.500000
0.030000  -26.500000
0.045000  -26.400000
0.054700  -26.400000
0.050200  -26.300000
0.027700  -26.300000
0.001500  -26.200000
-0.015800  -26.200000
-0.022500  -26.100000
-0.018100  -26.100000
-0.012000  -26.100000
0.000700  -26.000000
0.004500  -26.000000
0.005200  -25.900000
0.011200  -25.900000
0.016500  -25.800000
0.027000  -25.700000
0.017200  -25.700000
0.003000  -25.700000
-0.005300  -25.600000
-0.014300  -25.600000
-0.012000  -25.500000
-0.015800  -25.500000
-0.010500  -25.400000
-0.010500  -25.400000
-0.013500  -25.300000
0.000700  -25.300000
0.010500  -25.200000
0.018000  -25.200000
0.018700  -25.200000
0.014200  -25.100000
0.006700  -25.100000
-0.000800  -25.000000
0.002200  -25.000000
0.005200  -24.900000
0.021000  -24.900000
0.031500  -24.900000
0.018000  -24.800000
0.000700  -24.800000
-0.016500  -24.800000
-0.035300  -24.700000
-0.049500  -24.700000
-0.051800  -24.600000
-0.036100  -24.600000
-0.011300  -24.500000
0.007500  -24.500000
0.016500  -24.400000
0.028500  -24.400000
0.042000  -24.300000
0.046500  -24.300000
0.037500  -24.300000
0.015700  -24.200000
-0.000800  -24.200000
-0.003000  -24.100000
-0.006800  -24.100000
-0.007500  -24.000000
-0.009100  -24.000000
-0.014300  -24.000000
-0.016500  -23.900000
-0.014300  -23.900000
0.001500  -23.900000
0.020200  -23.800000
0.027000  -23.800000
0.027000  -23.700000
0.017200  -23.700000
0.004500  -23.600000
-0.009100  -23.600000
-0.023300  -23.500000
-0.022500  -23.500000
-0.016500  -23.400000
-0.001500  -23.400000
0.004500  -23.400000
-0.007500  -23.300000
-0.012000  -23.300000
-0.012800  -23.200000
-0.006000  -23.100000
0.000000  -23.100000
0.005200  -23.000000
0.012000  -23.000000
0.012000  -23.000000
0.019500  -22.900000
0.009700  -22.900000
-0.008300  -22.800000
-0.009100  -22.800000
-0.005300  -22.700000
0.011200  -22.700000
0.027700  -22.600000
0.031500  -22.600000
0.024000  -22.600000
0.010500  -22.500000
0.001500  -22.500000
0.003000  -22.500000
-0.000800  -22.400000
-0.014300  -22.400000
-0.000800  -22.400000
0.033000  -22.300000
0.048000  -22.300000
0.050200  -22.200000
0.033000  -22.200000
-0.009800  -22.200000
-0.044300  -22.100000
-0.057000  -22.100000
-0.053300  -22.100000
-0.049500  -22.100000
-0.049500  -22.000000
-0.036800  -22.000000
-0.022500  -21.900000
-0.009100  -21.900000
0.000700  -21.900000
0.011200  -21.800000
0.019500  -21.800000
0.030700  -21.800000
0.037500  -21.700000
0.020200  -21.700000
0.007500  -21.700000
0.004500  -21.600000
0.001500  -21.600000
0.004500  -21.600000
0.011200  -21.600000
0.027700  -21.500000
0.051700  -21.500000
0.084000  -21.500000
0.089200  -21.400000
0.048700  -21.400000
0.000000  -21.400000
-0.051800  -21.300000
-0.080300  -21.300000
-0.085600  -21.300000
-0.080300  -21.200000
-0.053300  -21.200000
-0.033000  -21.200000
-0.012800  -21.200000
-0.003800  -21.100000
0.001500  -21.100000
0.011200  -21.100000
0.007500  -21.000000
0.009000  -21.000000
0.003700  -21.000000
-0.006000  -20.900000
-0.001500  -20.900000
0.006000  -20.800000
0.019500  -20.800000
0.030700  -20.800000
0.032200  -20.700000
0.021700  -20.700000
0.006700  -20.700000
0.003000  -20.700000
0.006700  -20.700000
0.006700  -20.600000
0.009000  -20.600000
0.015700  -20.500000
0.021000  -20.500000
0.025500  -20.500000
0.031500  -20.400000
0.031500  -20.400000
0.027000  -20.300000
0.012000  -20.300000
-0.006800  -20.300000
-0.017300  -20.300000
-0.024000  -20.300000
-0.021800  -20.200000
-0.019500  -20.200000
-0.013500  -20.100000
-0.008300  -20.100000
-0.010500  -20.100000
-0.007500  -20.000000
-0.006000  -20.000000
-0.001500  -20.000000
-0.000800  -19.900000
-0.003000  -19.900000
0.001500  -19.900000
0.003000  -19.800000
0.009700  -19.800000
0.009700  -19.800000
0.002200  -19.800000
-0.004600  -19.700000
-0.013500  -19.700000
-0.021800  -19.700000
-0.018100  -19.700000
-0.006800  -19.600000
0.003000  -19.600000
0.018000  -19.600000
0.024000  -19.500000
0.018000  -19.500000
0.016500  -19.500000
0.011200  -19.400000
0.004500  -19.400000
0.001500  -19.400000
-0.004600  -19.400000
-0.003800  -19.300000
0.000700  -19.300000
0.000000  -19.200000
-0.015000  -19.200000
-0.028500  -19.200000
-0.029300  -19.100000
-0.021800  -19.100000
0.000000  -19.100000
0.029200  -19.000000
0.042700  -19.000000
0.042000  -19.000000
0.031500  -18.900000
0.009000  -18.900000
-0.005300  -18.900000
-0.005300  -18.800000
-0.012800  -18.800000
-0.014300  -18.800000
-0.009100  -18.700000
-0.008300  -18.700000
-0.007500  -18.700000
-0.015000  -18.600000
-0.008300  -18.600000
0.017200  -18.600000
0.041200  -18.500000
0.060700  -18.500000
0.052500  -18.500000
0.021000  -18.500000
-0.009100  -18.500000
-0.035300  -18.400000
-0.049500  -18.400000
-0.051800  -18.400000
-0.042800  -18.300000
-0.020300  -18.300000
0.021700  -18.300000
0.069700  -18.200000
0.063700  -18.200000
0.036700  -18.200000
0.005200  -18.100000
-0.036800  -18.100000
-0.050300  -18.100000
-0.063800  -18.100000
-0.063000  -18.000000
-0.045800  -18.000000
-0.040500  -18.000000
-0.019500  -18.000000
-0.003800  -18.000000
-0.001500  -18.000000
0.004500  -17.900000
0.011200  -17.900000
0.015700  -17.900000
0.024700  -17.900000
0.048000  -17.800000
0.054700  -17.800000
0.051000  -17.800000
0.046500  -17.800000
0.027000  -17.800000
0.012000  -17.700000
0.003700  -17.700000
0.004500  -17.700000
0.009000  -17.600000
0.004500  -17.600000
0.001500  -17.600000
-0.003000  -17.600000
0.003000  -17.600000
0.009000  -17.600000
-0.004600  -17.500000
-0.016500  -17.500000
-0.024000  -17.500000
-0.016500  -17.400000
0.001500  -17.400000
0.010500  -17.400000
0.005200  -17.400000
-0.018100  -17.300000
-0.033800  -17.300000
-0.027800  -17.300000
-0.006800  -17.300000
0.012000  -17.200000
0.011200  -17.200000
0.007500  -17.200000
-0.006000  -17.100000
-0.010500  -17.100000
0.008200  -17.100000
0.027700  -17.100000
0.039700  -17.000000
0.025500  -17.000000
0.002200  -17.000000
-0.019500  -16.900000
-0.035300  -16.900000
-0.039000  -16.900000
-0.042800  -16.900000
-0.038300  -16.800000
-0.021000  -16.800000
-0.000800  -16.800000
0.022500  -16.700000
0.058500  -16.700000
0.084700  -16.700000
0.062200  -16.700000
0.035200  -16.700000
0.009000  -16.600000
-0.016500  -16.600000
-0.023300  -16.600000
-0.041300  -16.600000
-0.040500  -16.500000
-0.025600  -16.500000
-0.015000  -16.500000
0.004500  -16.500000
0.008200  -16.400000
0.009000  -16.400000
0.006700  -16.400000
0.007500  -16.400000
0.042000  -16.400000
0.117700  -16.300000
0.167200  -16.300000
0.117000  -16.300000
0.046500  -16.300000
-0.040500  -16.200000
-0.117800  -16.200000
-0.144100  -16.200000
-0.159800  -16.200000
-0.124500  -16.200000
-0.065300  -16.200000
0.000700  -16.200000
0.040500  -16.200000
0.032200  -16.100000
0.024000  -16.100000
-0.001500  -16.100000
-0.006800  -16.100000
-0.009100  -16.100000
-0.006800  -16.000000
0.010500  -16.000000
0.005200  -16.000000
0.012700  -16.000000
0.014200  -16.000000
0.013500  -15.900000
0.019500  -15.900000
0.016500  -15.900000
0.020200  -15.900000
0.010500  -15.900000
-0.004600  -15.800000
-0.006000  -15.800000
0.001500  -15.800000
0.031500  -15.800000
0.054000  -15.800000
0.054000  -15.800000
0.079500  -15.800000
0.108000  -15.700000
0.081000  -15.700000
0.039000  -15.700000
-0.009100  -15.700000
-0.060800  -15.700000
-0.079500  -15.600000
-0.095300  -15.600000
-0.089300  -15.600000
-0.067500  -15.600000
-0.051800  -15.600000
-0.028500  -15.500000
-0.021800  -15.500000
-0.007500  -15.500000
0.014200  -15.500000
0.027700  -15.500000
0.036700  -15.400000
0.031500  -15.400000
0.033000  -15.400000
0.035200  -15.400000
0.019500  -15.300000
0.012000  -15.300000
0.030700  -15.300000
0.032200  -15.300000
0.013500  -15.300000
0.001500  -15.300000
-0.012000  -15.300000
-0.010500  -15.200000
-0.018800  -15.200000
-0.031500  -15.200000
-0.027800  -15.200000
-0.023300  -15.100000
-0.007500  -15.100000
0.007500  -15.100000
0.029200  -15.100000
0.050200  -15.100000
0.044200  -15.100000
0.019500  -15.000000
-0.014300  -15.000000
-0.039000  -15.000000
-0.057000  -15.000000
-0.057000  -15.000000
-0.048000  -14.900000
-0.042000  -14.900000
-0.034600  -14.900000
-0.022500  -14.900000
0.003000  -14.900000
0.019500  -14.900000
0.024000  -14.900000
0.027000  -14.900000
0.021700  -14.900000
0.016500  -14.800000
0.019500  -14.800000
0.025500  -14.800000
0.029200  -14.800000
0.036700  -14.800000
0.040500  -14.800000
0.029200  -14.800000
0.012700  -14.800000
0.003000  -14.800000
0.000700  -14.700000
0.001500  -14.700000
0.009700  -14.700000
0.020200  -14.700000
0.021700  -14.700000
0.009700  -14.700000
-0.009100  -14.700000
-0.012800  -14.700000
-0.008300  -14.700000
-0.008300  -14.700000
-0.005300  -14.600000
-0.010500  -14.600000
-0.012000  -14.600000
-0.013500  -14.600000
-0.014300  -14.600000
-0.003800  -14.600000
-0.000800  -14.600000
0.015700  -14.600000
0.031500  -14.600000
0.030000  -14.600000
0.040500  -14.600000
0.049500  -14.600000
0.032200  -14.600000
0.005200  -14.600000
-0.027000  -14.600000
-0.060000  -14.600000
-0.072800  -14.600000
-0.072800  -14.600000
-0.051800  -14.600000
-0.027000  -14.600000
-0.018100  -14.600000
-0.002300  -14.600000
0.003700  -14.600000
0.006700  -14.600000
0.008200  -14.600000
0.004500  -14.600000
0.003700  -14.600000
0.010500  -14.600000
0.033700  -14.600000
0.038200  -14.600000
0.025500  -14.600000
0.009000  -14.600000
-0.009100  -14.600000
-0.003000  -14.600000
0.006000  -14.600000
0.004500  -14.600000
0.008200  -14.600000
0.009700  -14.600000
0.006700  -14.600000
0.001500  -14.600000
0.001500  -14.600000
0.001500  -14.600000
-0.003000  -14.700000
-0.007500  -14.700000
-0.015000  -14.700000
-0.018100  -14.700000
-0.015800  -14.700000
-0.008300  -14.700000
0.006000  -14.800000
0.026200  -14.800000
0.044200  -14.800000
0.056200  -14.800000
0.068200  -14.900000
0.095200  -14.900000
0.095200  -14.900000
0.032200  -14.900000
-0.024000  -14.900000
-0.077300  -14.900000
-0.113300  -14.900000
-0.109500  -15.000000
-0.106500  -15.000000
-0.080300  -15.000000
-0.059300  -15.100000
-0.038300  -15.100000
-0.010500  -15.100000
0.003000  -15.100000
0.027000  -15.100000
0.045700  -15.100000
0.048000  -15.100000
0.042000  -15.100000
0.030700  -15.100000
0.021700  -15.200000
0.015700  -15.200000
0.007500  -15.200000
0.001500  -15.200000
0.000700  -15.200000
0.000000  -15.200000
0.004500  -15.300000
0.008200  -15.300000
0.015700  -15.300000
0.016500  -15.300000
0.010500  -15.300000
0.006700  -15.300000
0.004500  -15.300000
0.009000  -15.300000
0.005200  -15.300000
0.004500  -15.300000
0.006000  -15.300000
0.008200  -15.400000
0.015700  -15.400000
0.014200  -15.400000
0.011200  -15.400000
0.000700  -15.400000
-0.010500  -15.400000
-0.014300  -15.400000
-0.018800  -15.400000
-0.015000  -15.400000
-0.014300  -15.500000
-0.003000  -15.500000
0.012000  -15.500000
0.020200  -15.500000
0.020200  -15.500000
0.013500  -15.600000
0.013500  -15.600000
0.008200  -15.600000
-0.001500  -15.600000
-0.008300  -15.600000
-0.005300  -15.600000
0.001500  -15.600000
-0.003000  -15.600000
0.000000  -15.600000
0.012000  -15.700000
0.010500  -15.700000
0.005200  -15.700000
-0.002300  -15.700000
-0.009800  -15.700000
-0.009100  -15.700000
-0.010500  -15.800000
-0.012800  -15.800000
-0.016500  -15.800000
-0.021800  -15.800000
-0.019500  -15.800000
-0.014300  -15.800000
-0.003000  -15.800000
0.009000  -15.800000
0.012700  -15.800000
0.005200  -15.900000
0.003700  -15.900000
0.009000  -15.900000
0.009000  -15.900000
0.012000  -16.000000
0.015700  -16.000000
0.023200  -16.000000
0.039000  -16.000000
0.039000  -16.000000
0.029200  -16.100000
0.024700  -16.100000
0.003000  -16.100000
-0.016500  -16.100000
-0.031500  -16.200000
-0.050300  -16.200000
-0.044300  -16.200000
-0.030000  -16.200000
-0.018100  -16.200000
-0.006800  -16.200000
0.005200  -16.300000
0.022500  -16.300000
0.026200  -16.400000
0.014200  -16.400000
0.006700  -16.400000
0.004500  -16.500000
-0.001500  -16.500000
-0.009100  -16.500000
-0.012800  -16.600000
-0.014300  -16.600000
-0.013500  -16.600000
-0.008300  -16.700000
-0.002300  -16.700000
0.008200  -16.700000
0.017200  -16.700000
0.021700  -16.800000
0.023200  -16.800000
0.023200  -16.900000
0.021000  -16.900000
0.008200  -16.900000
0.003000  -16.900000
0.005200  -17.000000
0.003000  -17.000000
0.000000  -17.000000
-0.006000  -17.100000
-0.006800  -17.100000
-0.005300  -17.100000
-0.006000  -17.100000
-0.012000  -17.200000
-0.012800  -17.200000
-0.003800  -17.200000
0.000700  -17.300000
0.003000  -17.300000
0.006000  -17.300000
0.012700  -17.400000
0.017200  -17.400000
0.018000  -17.400000
0.027700  -17.500000
0.021700  -17.500000
0.000700  -17.600000
-0.012800  -17.600000
-0.028500  -17.600000
-0.027800  -17.700000
-0.016500  -17.700000
-0.010500  -17.800000
0.003000  -17.800000
0.007500  -17.900000
0.009000  -17.900000
0.014200  -17.900000
0.011200  -18.000000
0.010500  -18.000000
0.009000  -18.000000
0.006700  -18.100000
0.003700  -18.100000
0.002200  -18.200000
-0.000800  -18.200000
-0.008300  -18.300000
-0.003000  -18.400000
-0.000800  -18.400000
0.001500  -18.400000
0.001500  -18.500000
-0.008300  -18.500000
-0.010500  -18.600000
-0.014300  -18.600000
-0.009800  -18.700000
0.003700  -18.800000
0.015700  -18.800000
0.015700  -18.900000
0.012700  -18.900000
0.010500  -18.900000
0.001500  -19.000000
-0.001500  -19.100000
-0.003800  -19.100000
-0.009100  -19.200000
-0.010500  -19.200000
-0.008300  -19.300000
-0.003000  -19.400000
0.003000  -19.400000
0.007500  -19.500000
0.009000  -19.500000
0.015000  -19.600000
0.012700  -19.700000
0.003700  -19.800000
-0.007500  -19.800000
-0.019500  -19.900000
-0.014300  -19.900000
-0.007500  -20.000000
-0.002300  -20.100000
0.004500  -20.200000
0.007500  -20.300000
0.008200  -20.300000
-0.001500  -20.400000
-0.003000  -20.400000
-0.000800  -20.500000
0.001500  -20.600000
0.004500  -20.700000
-0.003000  -20.700000
-0.004600  -20.800000
-0.006800  -20.900000
-0.009100  -20.900000
-0.004600  -21.000000
-0.004600  -21.100000
-0.003000  -21.200000
0.000000  -21.200000
0.003000  -21.300000
0.011200  -21.400000
0.024000  -21.500000
0.040500  -21.600000
0.040500  -21.600000
0.031500  -21.700000
0.018700  -21.700000
0.004500  -21.800000
-0.004600  -21.900000
-0.009100  -22.000000
-0.006800  -22.100000
-0.007500  -22.100000
-0.009100  -22.200000
-0.007500  -22.300000
-0.010500  -22.300000
-0.005300  -22.400000
-0.002300  -22.500000
-0.002300  -22.500000
0.006700  -22.600000
0.016500  -22.600000
0.023200  -22.700000
0.018000  -22.800000
0.005200  -22.900000
-0.009100  -22.900000
-0.018800  -23.000000
-0.017300  -23.000000
-0.012000  -23.100000
-0.005300  -23.200000
0.000700  -23.200000
-0.000800  -23.300000
-0.008300  -23.400000
-0.010500  -23.400000
-0.005300  -23.500000
0.004500  -23.600000
0.008200  -23.600000
0.000700  -23.600000
-0.003800  -23.700000
-0.010500  -23.700000
-0.008300  -23.800000
0.005200  -23.800000
0.016500  -23.900000
0.023200  -23.900000
0.021700  -23.900000
0.019500  -24.000000
0.016500  -24.000000
0.008200  -24.100000
-0.000800  -24.100000
-0.005300  -24.200000
-0.004600  -24.200000
-0.005300  -24.300000
-0.003000  -24.300000
0.000700  -24.300000
0.003000  -24.400000
0.000700  -24.500000
-0.005300  -24.500000
-0.004600  -24.500000
-0.008300  -24.600000
-0.008300  -24.600000
-0.006800  -24.700000
-0.010500  -24.800000
-0.012000  -24.800000
-0.008300  -24.800000
-0.003000  -24.900000
0.000700  -24.900000
0.003000  -25.000000
0.007500  -25.000000
0.014200  -25.100000
0.016500  -25.100000
0.012700  -25.200000
0.012700  -25.200000
0.009000  -25.300000
0.005200  -25.300000
0.003700  -25.400000
-0.002300  -25.500000
0.003700  -25.500000
0.012000  -25.600000
0.014200  -25.700000
0.014200  -25.700000
0.003000  -25.800000
0.001500  -25.900000
0.004500  -26.000000
-0.002300  -26.100000
-0.004600  -26.200000
-0.013500  -26.300000
-0.020300  -26.300000
-0.019500  -26.400000
-0.010500  -26.500000
0.006700  -26.600000
0.006700  -26.700000
0.000700  -26.800000
-0.006800  -26.800000
-0.014300  -26.900000
-0.012000  -27.000000
-0.009100  -27.100000
-0.006000  -27.200000
0.009000  -27.300000
0.027700  -27.400000
0.027000  -27.500000
0.009000  -27.600000
-0.008300  -27.700000
-0.014300  -27.800000
-0.009100  -27.900000
-0.003000  -28.000000
0.009000  -28.100000
0.017200  -28.200000
0.017200  -28.400000
0.015700  -28.400000
0.005200  -28.500000
-0.004600  -28.700000
-0.009100  -28.800000
-0.012000  -28.800000
-0.009800  -28.900000
0.000700  -29.100000
0.021700  -29.200000
0.036000  -29.300000
0.033700  -29.300000
0.018700  -29.400000
0.000000  -29.500000
-0.006000  -29.600000
-0.011300  -29.700000
-0.009800  -29.700000
-0.001500  -29.800000
-0.000800  -29.900000
-0.003800  -30.000000
-0.009800  -30.100000
-0.008300  -30.200000
-0.009100  -30.200000
-0.009100  -30.300000
-0.000800  -30.400000
0.003000  -30.500000
0.009000  -30.600000
0.012000  -30.600000
0.008200  -30.700000
0.005200  -30.800000
0.006000  -30.800000
0.006000  -30.900000
-0.004600  -31.000000
-0.018100  -31.100000
-0.023300  -31.100000
-0.022500  -31.200000
-0.016500  -31.200000
-0.014300  -31.300000
-0.010500  -31.400000
0.003700  -31.500000
0.009000  -31.500000
0.012000  -31.500000
0.015700  -31.600000
0.012700  -31.700000
0.012700  -31.800000
0.003000  -31.800000
-0.001500  -31.900000
-0.002300  -32.000000
0.000000  -32.000000
0.015000  -32.100000
0.023200  -32.200000
0.025500  -32.200000
0.021700  -32.300000
0.012000  -32.400000
0.004500  -32.400000
-0.004600  -32.500000
-0.005300  -32.600000
-0.003000  -32.600000
0.000000  -32.700000
0.004500  -32.800000
0.004500  -32.900000
0.001500  -32.900000
-0.001500  -33.000000
-0.009800  -33.100000
-0.015000  -33.100000
-0.015800  -33.200000
-0.015800  -33.300000
-0.003000  -33.300000
0.002200  -33.400000
0.001500  -33.500000
-0.000800  -33.600000
-0.004600  -33.700000
-0.005300  -33.700000
-0.005300  -33.800000
-0.000800  -33.900000
0.000700  -34.000000
0.003000  -34.100000
0.003000  -34.100000
-0.003000  -34.200000
-0.005300  -34.300000
-0.010500  -34.400000
-0.006000  -34.500000
0.007500  -34.500000
0.018000  -34.600000
0.028500  -34.700000
0.029200  -34.800000
0.027000  -34.900000
0.024700  -34.900000
0.015700  -35.000000
0.003700  -35.100000
-0.005300  -35.200000
-0.012000  -35.300000
-0.014300  -35.300000
-0.009100  -35.400000
-0.001500  -35.500000
0.001500  -35.600000
0.003000  -35.700000
0.003000  -35.700000
0.000700  -35.800000
-0.006000  -35.900000
-0.008300  -36.000000
-0.007500  -36.100000
-0.009100  -36.100000
-0.007500  -36.200000
-0.003000  -36.300000
-0.007500  -36.400000
-0.010500  -36.500000
-0.013500  -36.500000
-0.014300  -36.600000
-0.012000  -36.800000
-0.009100  -36.800000
0.006700  -36.900000
0.021700  -36.900000
0.025500  -37.000000
0.029200  -37.100000
0.027000  -37.200000
0.018000  -37.300000
0.012000  -37.400000
0.012000  -37.400000
0.015700  -37.500000
0.012000  -37.600000
0.004500  -37.700000
-0.002300  -37.800000
-0.008300  -37.800000
-0.008300  -37.900000
-0.002300  -38.000000
-0.003000  -38.100000
-0.003000  -38.200000
-0.003800  -38.200000
-0.005300  -38.300000
-0.000800  -38.400000
0.000700  -38.500000
0.005200  -38.500000
0.001500  -38.600000
-0.008300  -38.700000
-0.012000  -38.800000
-0.012800  -38.900000
-0.006000  -38.900000
0.008200  -39.000000
0.015000  -39.100000
0.015700  -39.200000
0.015700  -39.300000
0.012700  -39.300000
0.012000  -39.400000
0.007500  -39.500000
0.003000  -39.600000
-0.006800  -39.700000
-0.015800  -39.700000
-0.014300  -39.800000
-0.009100  -40.000000
0.005200  -40.000000
0.012700  -40.100000
0.012000  -40.100000
0.015700  -40.200000
0.009000  -40.300000
0.002200  -40.400000
-0.006800  -40.500000
-0.008300  -40.500000
-0.000800  -40.600000
0.002200  -40.700000
0.008200  -40.700000
0.004500  -40.800000
0.001500  -40.900000
0.002200  -41.000000
-0.002300  -41.000000
-0.005300  -41.100000
-0.004600  -41.200000
0.000700  -41.300000
0.005200  -41.300000
0.006000  -41.400000
0.005200  -41.400000
0.003700  -41.500000
0.000000  -41.600000
-0.006000  -41.700000
-0.008300  -41.700000
-0.006800  -41.800000
-0.001500  -41.900000
0.003000  -41.900000
0.004500  -42.000000
0.003700  -42.000000
0.000000  -42.100000
0.001500  -42.200000
0.003000  -42.200000
0.005200  -42.300000
0.006700  -42.300000
0.003700  -42.400000
0.009000  -42.500000
0.012700  -42.500000
0.017200  -42.600000
0.023200  -42.700000
0.008200  -42.800000
-0.004600  -42.800000
-0.009100  -42.900000
-0.013500  -42.900000
-0.014300  -43.000000
-0.016500  -43.100000
-0.012000  -43.200000
-0.012000  -43.200000
-0.008300  -43.300000
-0.003000  -43.400000
0.000000  -43.400000
0.008200  -43.500000
0.005200  -43.600000
0.001500  -43.700000
-0.001500  -43.700000
-0.000800  -43.800000
0.008200  -43.800000
0.013500  -43.900000
0.016500  -44.000000
0.015700  -44.100000
0.009700  -44.100000
0.004500  -44.200000
0.000000  -44.200000
-0.000800  -44.300000
-0.000800  -44.400000
-0.002300  -44.500000
-0.008300  -44.500000
-0.012000  -44.600000
-0.005300  -44.600000
0.005200  -44.700000
0.011200  -44.800000
0.014200  -44.800000
0.014200  -44.900000
0.012700  -45.000000
0.005200  -45.000000
-0.006800  -45.100000
-0.012800  -45.200000
-0.012000  -45.200000
-0.003000  -45.300000
0.002200  -45.400000
0.007500  -45.500000
0.012700  -45.500000
0.014200  -45.600000
0.015700  -45.700000
0.014200  -45.800000
0.007500  -45.800000
-0.006800  -45.900000
-0.014300  -46.000000
-0.015000  -46.000000
-0.012800  -46.100000
-0.006000  -46.200000
-0.001500  -46.300000
0.002200  -46.400000
0.000700  -46.400000
-0.003000  -46.500000
0.000000  -46.600000
0.001500  -46.700000
-0.002300  -46.800000
-0.004600  -46.800000
-0.004600  -46.900000
-0.003800  -47.000000
-0.003000  -47.000000
0.000000  -47.100000
0.003000  -47.200000
0.003000  -47.300000
0.003000  -47.300000
0.003000  -47.400000
0.000000  -47.500000
-0.000800  -47.600000
0.000000  -47.700000
0.002200  -47.700000
0.004500  -47.800000
0.003000  -47.900000
0.003700  -48.000000
0.001500  -48.100000
0.001500  -48.100000
0.000700  -48.200000
0.000700  -48.300000
0.003000  -48.300000
0.001500  -48.500000
0.003700  -48.500000
0.006700  -48.600000
0.005200  -48.600000
0.009700  -48.700000
0.012000  -48.800000
0.009700  -48.800000
0.001500  -48.900000
-0.006800  -49.000000
-0.010500  -49.100000
-0.009800  -49.100000
-0.004600  -49.200000
0.000000  -49.300000
0.003700  -49.300000
0.005200  -49.400000
0.003000  -49.500000
0.003700  -49.500000
-0.003000  -49.600000
-0.005300  -49.700000
-0.003800  -49.700000
-0.005300  -49.900000
-0.004600  -49.900000
-0.008300  -50.000000
-0.007500  -50.000000
-0.007500  -50.100000
-0.006800  -50.200000
0.000700  -50.200000
0.005200  -50.300000
0.009000  -50.400000
0.011200  -50.400000
0.015000  -50.500000
0.018000  -50.600000
0.015700  -50.600000
0.012700  -50.700000
0.009000  -50.800000
0.003700  -50.900000
-0.003800  -50.900000
-0.011300  -50.900000
-0.013500  -51.000000
-0.012000  -51.100000
-0.005300  -51.200000
0.000700  -51.200000
0.001500  -51.300000
-0.003000  -51.300000
-0.004600  -51.400000
-0.006000  -51.500000
-0.008300  -51.600000
-0.005300  -51.600000
0.000700  -51.700000
0.008200  -51.800000
0.013500  -51.800000
0.021700  -51.900000
0.034500  -51.900000
0.043500  -52.000000
0.042700  -52.100000
0.030700  -52.200000
0.012000  -52.200000
-0.006000  -52.300000
-0.015800  -52.300000
-0.024000  -52.400000
-0.024000  -52.500000
-0.021000  -52.600000
-0.020300  -52.600000
-0.012800  -52.700000
-0.008300  -52.800000
-0.000800  -52.800000
0.001500  -52.900000
-0.001500  -53.000000
0.003000  -53.100000
0.003000  -53.100000
0.006700  -53.200000
0.005200  -53.300000
-0.000800  -53.400000
0.000000  -53.400000
0.000000  -53.500000
0.000700  -53.600000
-0.001500  -53.600000
-0.002300  -53.700000
0.000700  -53.800000
0.001500  -53.900000
0.000700  -54.000000
-0.000800  -54.000000
-0.001500  -54.100000
0.001500  -54.200000
0.004500  -54.300000
0.003700  -54.300000
0.005200  -54.400000
0.005200  -54.500000
0.006700  -54.500000
0.009000  -54.600000
0.005200  -54.700000
0.001500  -54.800000
0.000000  -54.900000
-0.006000  -54.900000
-0.004600  -55.000000
-0.001500  -55.100000
-0.001500  -55.100000
0.003000  -55.200000
0.003000  -55.300000
0.000700  -55.400000
-0.000800  -55.500000
0.000700  -55.500000
0.003000  -55.600000
0.000700  -55.700000
0.003000  -55.700000
0.004500  -55.800000
0.003000  -55.800000
0.003700  -55.900000
0.005200  -56.000000
0.003700  -56.100000
0.004500  -56.200000
0.006700  -56.200000
0.000700  -56.300000
-0.002300  -56.300000
-0.006800  -56.400000
-0.005300  -56.500000
-0.001500  -56.600000
-0.003000  -56.600000
-0.001500  -56.700000
-0.003000  -56.700000
0.000000  -56.900000
0.002200  -56.900000
-0.000800  -57.000000
0.003700  -57.100000
0.003000  -57.200000
0.004500  -57.200000
0.003000  -57.300000
-0.003800  -57.400000
-0.003000  -57.500000
-0.002300  -57.500000
0.000700  -57.600000
0.002200  -57.700000
0.000700  -57.700000
0.001500  -57.800000
0.003700  -57.900000
0.006700  -58.000000
0.009000  -58.100000
0.005200  -58.100000
-0.000800  -58.200000
-0.003800  -58.300000
-0.006000  -58.400000
-0.005300  -58.500000
-0.003000  -58.500000
-0.005300  -58.600000
-0.009100  -58.700000
-0.013500  -58.800000
-0.006800  -58.900000
-0.002300  -58.900000
-0.001500  -59.000000
0.003000  -59.100000
0.008200  -59.200000
0.015000  -59.200000
0.024700  -59.300000
0.030700  -59.400000
0.027000  -59.400000
0.018000  -59.500000
0.008200  -59.600000
-0.003800  -59.700000
-0.009100  -59.800000
-0.009100  -59.900000
-0.006000  -60.000000
-0.003800  -60.000000
-0.002300  -60.100000
0.000700  -60.200000
0.000700  -60.300000
0.003700  -60.400000
0.006700  -60.500000
0.006700  -60.600000
0.003000  -60.700000
-0.002300  -60.800000
-0.008300  -60.800000
-0.012800  -60.900000
-0.008300  -61.000000
-0.001500  -61.100000
0.000700  -61.200000
0.006700  -61.200000
0.008200  -61.300000
0.005200  -61.400000
0.006700  -61.500000
0.002200  -61.600000
0.003000  -61.700000
0.004500  -61.800000
0.003000  -61.900000
0.005200  -62.000000
0.003000  -62.100000
0.004500  -62.100000
0.004500  -62.200000
-0.001500  -62.300000
-0.000800  -62.400000
-0.001500  -62.500000
-0.000800  -62.600000
-0.003000  -62.600000
-0.005300  -62.700000
-0.003000  -62.800000
-0.003800  -62.900000
-0.001500  -63.000000
0.000700  -63.100000
0.001500  -63.200000
0.001500  -63.300000
-0.000800  -63.400000
0.005200  -63.500000
0.007500  -63.500000
0.006700  -63.600000
0.006700  -63.800000
0.003700  -63.900000
0.001500  -63.900000
0.000700  -64.100000
0.001500  -64.200000
0.001500  -64.300000
0.001500  -64.400000
0.004500  -64.500000
0.003000  -64.600000
0.000700  -64.700000
0.001500  -64.800000
0.003000  -64.800000
0.003000  -65.000000
0.001500  -65.100000
0.003000  -65.200000
0.005200  -65.300000
0.005200  -65.400000
0.004500  -65.500000
0.002200  -65.600000
0.000700  -65.700000
-0.002300  -65.700000
-0.005300  -65.800000
-0.006800  -65.900000
-0.005300  -66.000000
-0.006000  -66.100000
-0.008300  -66.200000
-0.005300  -66.300000
-0.004600  -66.400000
-0.005300  -66.500000
-0.005300  -66.600000
-0.005300  -66.700000
-0.005300  -66.800000
-0.006000  -66.900000
-0.003800  -67.000000
0.002200  -67.100000
0.008200  -67.100000
0.014200  -67.200000
0.017200  -67.400000
0.020200  -67.400000
0.020200  -67.500000
0.016500  -67.600000
0.012700  -67.700000
0.006700  -67.800000
0.005200  -67.900000
0.004500  -68.000000
-0.002300  -68.100000
-0.001500  -68.200000
-0.004600  -68.300000
-0.006800  -68.400000
-0.006800  -68.500000
-0.005300  -68.600000
-0.003000  -68.700000
-0.003000  -68.800000
-0.003000  -68.900000
-0.005300  -69.000000
-0.005300  -69.100000
-0.004600  -69.200000
-0.003000  -69.300000
-0.001500  -69.300000
0.000700  -69.400000
0.006000  -69.500000
0.008200  -69.600000
0.010500  -69.700000
0.012000  -69.800000
0.012000  -69.900000
0.008200  -70.000000
0.001500  -70.100000
0.000700  -70.200000
-0.003800  -70.300000
-0.001500  -70.400000
0.001500  -70.500000
0.001500  -70.600000
0.004500  -70.700000
0.000700  -70.700000
-0.000800  -70.800000
0.000700  -70.900000
-0.001500  -71.000000
-0.000800  -71.100000
-0.004600  -71.200000
-0.006000  -71.300000
-0.003800  -71.400000
-0.003000  -71.500000
-0.001500  -71.600000
-0.003000  -71.600000
0.000700  -71.700000
0.003700  -71.800000
0.004500  -71.900000
0.007500  -72.000000
0.009000  -72.100000
0.010500  -72.200000
0.008200  -72.300000
0.009000  -72.400000
0.009000  -72.500000
0.005200  -72.500000
0.008200  -72.600000
0.004500  -72.700000
-0.001500  -72.800000
-0.004600  -72.900000
-0.007500  -73.000000
-0.006000  -73.100000
-0.007500  -73.200000
-0.005300  -73.300000
0.001500  -73.400000
0.001500  -73.400000
0.000000  -73.500000
-0.002300  -73.600000
-0.002300  -73.700000
-0.000800  -73.800000
0.003000  -73.900000
0.005200  -74.000000
0.004500  -74.100000
0.006700  -74.200000
0.005200  -74.300000
0.003000  -74.400000
0.001500  -74.500000
0.000000  -74.600000
0.000700  -74.700000
-0.001500  -74.800000
-0.000800  -74.800000
0.000700  -74.900000
0.001500  -75.000000
0.005200  -75.100000
0.003700  -75.200000
0.000700  -75.300000
0.001500  -75.400000
0.001500  -75.500000
0.001500  -75.600000
-0.000800  -75.600000
-0.000800  -75.700000
0.000700  -75.800000
0.003000  -75.900000
0.004500  -76.000000
0.003000  -76.100000
0.001500  -76.200000
-0.000800  -76.300000
0.000700  -76.400000
0.001500  -76.500000
0.001500  -76.600000
0.005200  -76.600000
0.005200  -76.700000
0.005200  -76.800000
0.003000  -76.900000
0.001500  -77.000000
0.001500  -77.000000
0.000700  -77.100000
-0.000800  -77.200000
-0.000800  -77.300000
-0.000800  -77.400000
0.000700  -77.500000
-0.001500  -77.600000
-0.000800  -77.700000
0.003000  -77.800000
0.004500  -77.900000
0.002200  -77.900000
0.002200  -78.000000
0.000700  -78.100000
0.000000  -78.200000
0.001500  -78.300000
0.000700  -78.300000
0.002200  -78.400000
0.002200  -78.500000
0.003700  -78.600000
0.003000  -78.700000
0.001500  -78.800000
0.005200  -78.900000
0.004500  -79.000000
0.006000  -79.100000
0.003000  -79.200000
-0.003000  -79.200000
-0.003800  -79.300000
-0.005300  -79.400000
-0.003000  -79.500000
-0.003800  -79.600000
-0.002300  -79.700000
-0.001500  -79.700000
-0.003000  -79.800000
-0.005300  -79.900000
-0.008300  -80.100000
-0.005300  -80.100000
-0.004600  -80.100000
-0.001500  -80.200000
0.006700  -80.300000
0.010500  -80.400000
0.015000  -80.500000
0.015700  -80.600000
0.013500  -80.600000
0.008200  -80.700000
0.000000  -80.800000
-0.001500  -80.900000
-0.006000  -80.900000
-0.010500  -81.000000
-0.005300  -81.100000
-0.003000  -81.200000
-0.000800  -81.200000
0.000000  -81.300000
-0.003000  -81.400000
-0.000800  -81.500000
0.000700  -81.600000
0.003000  -81.600000
0.003000  -81.700000
0.004500  -81.800000
0.003700  -81.900000
0.002200  -81.900000
0.000000  -82.000000
-0.001500  -82.100000
0.000700  -82.200000
0.001500  -82.200000
0.003000  -82.300000
0.005200  -82.400000
0.003700  -82.400000
0.006700  -82.500000
0.006700  -82.600000
0.004500  -82.700000
0.008200  -82.800000
0.004500  -82.800000
-0.000800  -82.900000
-0.001500  -83.000000
-0.004600  -83.100000
-0.001500  -83.200000
-0.001500  -83.200000
-0.001500  -83.300000
0.000000  -83.300000
0.000000  -83.400000
0.000700  -83.500000
0.000700  -83.600000
0.000700  -83.600000
-0.000800  -83.700000
-0.003000  -83.800000
-0.003800  -83.800000
-0.003000  -83.900000
-0.000800  -84.000000
-0.001500  -84.100000
0.000700  -84.100000
0.003700  -84.200000
0.003000  -84.200000
0.003000  -84.300000
0.002200  -84.400000
0.003000  -84.500000
0.004500  -84.600000
0.003000  -84.600000
0.002200  -84.700000
0.003000  -84.800000
0.006700  -84.800000
0.005200  -84.900000
0.004500  -85.000000
0.004500  -85.100000
0.001500  -85.100000
0.003000  -85.200000
0.002200  -85.300000
0.000700  -85.400000
0.001500  -85.400000
-0.001500  -85.500000
-0.000800  -85.600000
0.000000  -85.600000
0.000700  -85.700000
0.003700  -85.800000
0.003700  -85.900000
0.001500  -86.000000
0.002200  -86.000000
0.000700  -86.100000
-0.003800  -86.200000
-0.003800  -86.300000
-0.005300  -86.400000
-0.007500  -86.400000
-0.004600  -86.500000
-0.003000  -86.600000
-0.000800  -86.600000
0.000700  -86.700000
0.000700  -86.800000
0.003000  -86.900000
0.003700  -86.900000
0.004500  -87.000000
0.003000  -87.100000
0.000700  -87.200000
0.000700  -87.300000
0.003700  -87.300000
0.002200  -87.400000
0.001500  -87.500000
0.003000  -87.500000
0.000700  -87.600000
0.000700  -87.700000
-0.000800  -87.800000
0.002200  -87.800000
0.008200  -87.800000
0.003000  -87.900000
0.003700  -88.000000
0.000700  -88.100000
-0.002300  -88.100000
-0.000800  -88.200000
0.000700  -88.200000
0.004500  -88.300000
0.003700  -88.400000
0.003000  -88.400000
0.000000  -88.500000
-0.004600  -88.600000
-0.005300  -88.600000
-0.008300  -88.700000
-0.006800  -88.800000
-0.003000  -88.800000
0.003000  -88.800000
0.005200  -88.900000
0.000000  -89.000000
0.000000  -89.000000
0.001500  -89.100000
0.002200  -89.100000
0.006700  -89.200000
0.009000  -89.200000
0.009000  -89.300000
0.006700  -89.300000
0.006700  -89.400000
0.007500  -89.500000
0.006700  -89.500000
0.006700  -89.600000
0.004500  -89.600000
0.006000  -89.600000
0.005200  -89.700000
0.002200  -89.800000
0.004500  -89.900000
0.003000  -89.900000
0.003700  -89.900000
0.001500  -90.000000
-0.001500  -90.000000
-0.003000  -90.100000
-0.005300  -90.100000
-0.005300  -90.200000
-0.003800  -90.200000
-0.001500  -90.300000
-0.001500  -90.400000
0.000700  -90.400000
0.000700  -90.500000
0.000700  -90.500000
0.006000  -90.500000
0.004500  -90.600000
0.002200  -90.600000
0.001500  -90.700000
0.000000  -90.800000
0.004500  -90.800000
0.000000  -90.900000
-0.000800  -90.900000
0.001500  -90.900000
-0.000800  -91.000000
0.003000  -91.000000
0.004500  -91.100000
0.005200  -91.100000
0.009000  -91.200000
0.008200  -91.200000
0.008200  -91.300000
0.009000  -91.400000
0.006700  -91.400000
0.004500  -91.400000
0.000700  -91.500000
-0.000800  -91.500000
0.002200  -91.600000
0.000000  -91.600000
-0.002300  -91.700000
-0.003000  -91.700000
-0.006800  -91.800000
-0.006800  -91.800000
-0.005300  -91.800000
-0.005300  -91.900000
-0.000800  -91.900000
0.000700  -92.000000
0.003000  -92.000000
0.004500  -92.100000
0.002200  -92.100000
0.001500  -92.200000
0.003000  -92.200000
0.003000  -92.300000
0.004500  -92.300000
0.004500  -92.300000
0.001500  -92.300000
0.000700  -92.400000
-0.001500  -92.400000
-0.005300  -92.500000
-0.003000  -92.500000
-0.001500  -92.600000
-0.000800  -92.600000
0.000700  -92.700000
0.001500  -92.700000
0.005200  -92.700000
0.009000  -92.800000
0.008200  -92.800000
0.002200  -92.800000
0.003700  -92.900000
0.006000  -92.900000
0.004500  -93.000000
0.006000  -93.000000
0.001500  -93.100000
-0.000800  -93.100000
-0.002300  -93.100000
-0.003800  -93.200000
-0.000800  -93.200000
-0.001500  -93.200000
0.000000  -93.300000
0.000000  -93.300000
-0.000800  -93.300000
0.001500  -93.400000
0.000700  -93.500000
0.000700  -93.500000
-0.000800  -93.500000
-0.002300  -93.500000
-0.001500  -93.600000
-0.000800  -93.600000
-0.000800  -93.600000
-0.001500  -93.600000
0.001500  -93.600000
0.004500  -93.700000
0.005200  -93.700000
0.004500  -93.700000
0.002200  -93.800000
0.000700  -93.800000
0.000700  -93.800000
0.000700  -93.900000
0.001500  -93.900000
0.002200  -93.900000
0.000700  -94.000000
-0.001500  -94.000000
-0.000800  -94.100000
0.001500  -94.100000
0.003000  -94.100000
0.008200  -94.100000
0.009000  -94.100000
0.006700  -94.100000
0.005200  -94.100000
0.005200  -94.100000
0.006000  -94.200000
0.006700  -94.200000
0.004500  -94.200000
-0.001500  -94.300000
-0.003000  -94.300000
-0.006000  -94.300000
-0.009100  -94.300000
-0.009100  -94.400000
-0.006800  -94.400000
-0.000800  -94.400000
-0.001500  -94.400000
-0.001500  -94.400000
0.004500  -94.500000
0.005200  -94.500000
0.005200  -94.500000
0.005200  -94.500000
0.005200  -94.500000
0.007500  -94.500000
0.006700  -94.500000
0.004500  -94.500000
0.003000  -94.600000
0.002200  -94.600000
0.001500  -94.600000
0.000700  -94.600000
-0.000800  -94.600000
-0.001500  -94.700000
0.000000  -94.700000
0.001500  -94.700000
-0.000800  -94.700000
-0.000800  -94.700000
0.000000  -94.700000
0.000700  -94.800000
0.000700  -94.800000
-0.000800  -94.800000
0.000000  -94.800000
-0.002300  -94.800000
0.000700  -94.800000
0.001500  -94.800000
0.000700  -94.900000
0.000700  -94.900000
-0.000800  -94.900000
-0.000800  -94.900000
-0.002300  -94.900000
-0.001500  -94.900000
-0.004600  -94.900000
-0.003000  -94.900000
0.003000  -94.900000
0.001500  -95.000000
0.005200  -95.000000
0.009000  -95.000000
0.005200  -95.000000
0.004500  -95.000000
0.000700  -95.000000
-0.004600  -95.000000
-0.004600  -95.000000
-0.004600  -95.000000
-0.003000  -95.000000
-0.001500  -95.000000
0.003000  -95.000000
0.003000  -95.000000
0.003000  -95.100000
0.003000  -95.100000
-0.000800  -95.100000
-0.001500  -95.100000
-0.000800  -95.100000
0.001500  -95.100000
0.004500  -95.100000
0.008200  -95.100000
0.009000  -95.100000
0.006700  -95.100000
0.002200  -95.200000
0.000000  -95.200000
0.003000  -95.200000
0.006700  -95.200000
0.006700  -95.200000
0.005200  -95.200000
0.005200  -95.200000
0.001500  -95.200000
0.000000  -95.200000
0.000700  -95.200000
0.000700  -95.200000
0.001500  -95.200000
0.001500  -95.200000
0.001500  -95.200000
0.003000  -95.200000
0.003000  -95.200000
0.003000  -95.200000
0.001500  -95.200000
0.002200  -95.200000
0.003000  -95.200000
-0.000800  -95.200000
0.000000  -95.200000
0.001500  -95.300000
0.002200  -95.300000
0.001500  -95.300000
-0.001500  -95.300000
0.000700  -95.300000
-0.000800  -95.300000
-0.004600  -95.300000
-0.006800  -95.300000
-0.008300  -95.300000
-0.005300  -95.300000
-0.004600  -95.300000
-0.001500  -95.300000
0.000700  -95.300000
-0.002300  -95.300000
0.001500  -95.300000
0.002200  -95.300000
0.003700  -95.300000
0.001500  -95.300000
0.000700  -95.300000
0.001500  -95.300000
-0.001500  -95.300000
0.003700  -95.300000
0.005200  -95.300000
0.003000  -95.200000
0.003700  -95.200000
-0.002300  -95.200000
0.000700  -95.200000
0.000700  -95.200000
0.000000  -95.200000
0.004500  -95.200000
0.000000  -95.200000
0.003000  -95.200000
0.002200  -95.200000
0.003000  -95.100000
0.007500  -95.100000
0.007500  -95.100000
0.012000  -95.100000
0.009000  -95.100000
0.009700  -95.100000
0.009700  -95.100000
0.008200  -95.100000
0.009000  -95.100000
0.004500  -95.100000
0.002200  -95.100000
-0.001500  -95.000000
-0.002300  -95.000000
0.000000  -95.000000
-0.001500  -95.000000
0.003000  -95.000000
0.004500  -95.000000
0.003700  -95.000000
0.001500  -95.000000
-0.003000  -95.000000
-0.003000  -95.000000
-0.003000  -95.000000
-0.000800  -95.000000
0.000700  -95.000000
0.001500  -95.000000
0.004500  -95.000000
0.000700  -95.000000
0.000700  -95.000000
0.001500  -95.000000
-0.003000  -95.000000
-0.006800  -95.000000
-0.008300  -94.900000
-0.003000  -94.900000
-0.002300  -94.900000
-0.001500  -94.900000
-0.000800  -94.900000
0.001500  -94.900000
0.002200  -94.900000
0.003000  -94.900000
0.003000  -94.900000
0.000700  -94.900000
0.003000  -94.900000
0.004500  -94.900000
0.005200  -94.900000
0.005200  -94.800000
0.003000  -94.800000
0.003000  -94.800000
0.003000  -94.800000
0.001500  -94.800000
0.000700  -94.800000
0.001500  -94.800000
0.003000  -94.800000
0.000700  -94.800000
0.000700  -94.800000
0.001500  -94.800000
0.000700  -94.800000
-0.000800  -94.800000
-0.000800  -94.800000
-0.001500  -94.800000
-0.002300  -94.800000
-0.000800  -94.800000
-0.001500  -94.800000
-0.001500  -94.700000
0.000700  -94.700000
-0.001500  -94.700000
-0.004600  -94.700000
-0.003800  -94.700000
-0.001500  -94.700000
0.000700  -94.700000
0.003000  -94.700000
0.004500  -94.700000
0.008200  -94.700000
0.010500  -94.700000
0.009700  -94.700000
0.009000  -94.700000
0.008200  -94.700000
0.003000  -94.700000
0.000700  -94.700000
0.001500  -94.700000
0.001500  -94.700000
0.002200  -94.700000
0.000700  -94.700000
0.000000  -94.700000
0.004500  -94.700000
0.004500  -94.700000
0.003000  -94.700000
0.000700  -94.700000
-0.001500  -94.700000
-0.000800  -94.700000
0.000700  -94.700000
0.001500  -94.700000
0.002200  -94.700000
-0.000800  -94.700000
-0.005300  -94.700000
-0.003000  -94.700000
-0.001500  -94.700000
-0.000800  -94.700000
0.001500  -94.700000
-0.001500  -94.700000
-0.001500  -94.700000
-0.001500  -94.700000
-0.000800  -94.700000
0.003700  -94.700000
0.004500  -94.700000
0.006700  -94.700000
0.004500  -94.700000
-0.000800  -94.700000
-0.000800  -94.700000
-0.002300  -94.700000
-0.004600  -94.700000
-0.001500  -94.700000
-0.003000  -94.700000
-0.002300  -94.700000
0.000000  -94.700000
0.000700  -94.700000
0.001500  -94.700000
-0.001500  -94.700000
-0.001500  -94.700000
-0.002300  -94.700000
-0.005300  -94.700000
-0.003800  -94.700000
0.001500  -94.700000
0.006700  -94.700000
0.009000  -94.700000
0.012700  -94.700000
0.013500  -94.700000
0.015000  -94.700000
0.013500  -94.700000
0.004500  -94.700000
0.000700  -94.700000
-0.003000  -94.700000
-0.001500  -94.700000
-0.000800  -94.700000
-0.001500  -94.700000
-0.002300  -94.700000
-0.006800  -94.700000
-0.009100  -94.700000
-0.008300  -94.700000
-0.005300  -94.700000
-0.005300  -94.700000
-0.006800  -94.700000
-0.005300  -94.700000
-0.008300  -94.700000
-0.003000  -94.700000
0.004500  -94.700000
0.008200  -94.700000
0.015700  -94.700000
0.018000  -94.700000
0.015700  -94.700000
0.011200  -94.700000
0.009000  -94.700000
0.009000  -94.700000
0.006000  -94.700000
0.004500  -94.700000
0.003000  -94.700000
0.004500  -94.700000
0.005200  -94.700000
0.003000  -94.700000
0.003000  -94.700000
-0.001500  -94.700000
-0.004600  -94.700000
-0.007500  -94.700000
-0.011300  -94.700000
-0.012800  -94.700000
-0.013500  -94.700000
-0.012000  -94.700000
-0.009100  -94.700000
-0.006800  -94.800000
-0.003800  -94.800000
0.001500  -94.800000
0.006700  -94.800000
0.010500  -94.800000
0.014200  -94.800000
0.014200  -94.800000
0.012700  -94.800000
0.010500  -94.800000
0.008200  -94.800000
0.006000  -94.800000
0.000700  -94.800000
-0.003000  -94.800000
-0.003000  -94.800000
-0.000800  -94.800000
0.000700  -94.800000
0.000700  -94.800000
0.000000  -94.800000
0.002200  -94.800000
0.004500  -94.800000
0.003000  -94.800000
-0.000800  -94.800000
0.001500  -94.800000
0.006000  -94.800000
0.006700  -94.800000
0.004500  -94.800000
0.004500  -94.800000
0.003700  -94.800000
0.001500  -94.800000
-0.000800  -94.800000
-0.005300  -94.700000
-0.006800  -94.700000
-0.006800  -94.700000
-0.004600  -94.700000
-0.001500  -94.700000
-0.000800  -94.700000
0.000000  -94.700000
0.000700  -94.700000
0.003000  -94.700000
0.005200  -94.700000
0.004500  -94.700000
0.005200  -94.700000
0.002200  -94.700000
-0.001500  -94.700000
-0.003000  -94.700000
-0.002300  -94.700000
-0.000800  -94.700000
-0.003000  -94.700000
-0.000800  -94.700000
0.002200  -94.700000
0.003700  -94.600000
0.005200  -94.600000
0.006000  -94.600000
0.010500  -94.600000
0.009700  -94.600000
0.009000  -94.600000
0.007500  -94.600000
0.004500  -94.600000
-0.000800  -94.600000
-0.003800  -94.600000
-0.000800  -94.600000
0.000700  -94.600000
0.006700  -94.600000
0.009000  -94.500000
0.008200  -94.500000
0.004500  -94.500000
-0.003800  -94.500000
-0.007500  -94.500000
-0.014300  -94.500000
-0.012800  -94.500000
-0.008300  -94.500000
-0.007500  -94.500000
-0.000800  -94.500000
0.000700  -94.500000
0.001500  -94.500000
0.000700  -94.400000
0.002200  -94.400000
0.003000  -94.400000
-0.001500  -94.400000
0.001500  -94.400000
0.003000  -94.400000
0.003000  -94.400000
0.008200  -94.300000
0.010500  -94.300000
0.006000  -94.300000
-0.001500  -94.300000
-0.009800  -94.300000
-0.012800  -94.200000
-0.011300  -94.200000
-0.010500  -94.200000
-0.005300  -94.200000
-0.000800  -94.200000
0.005200  -94.100000
0.017200  -94.100000
0.023200  -94.100000
0.021700  -94.100000
0.011200  -94.100000
0.004500  -94.100000
0.003700  -94.100000
0.004500  -94.000000
0.004500  -94.000000
0.005200  -94.000000
0.003700  -93.900000
-0.000800  -93.900000
-0.000800  -93.900000
0.001500  -93.800000
0.001500  -93.800000
0.002200  -93.700000
0.000700  -93.700000
0.000700  -93.700000
0.001500  -93.600000
0.000000  -93.600000
-0.000800  -93.600000
-0.006800  -93.600000
-0.008300  -93.500000
-0.007500  -93.500000
-0.008300  -93.400000
-0.003800  -93.400000
-0.004600  -93.400000
-0.000800  -93.300000
0.003000  -93.300000
0.003000  -93.200000
0.007500  -93.200000
0.006700  -93.200000
0.006700  -93.100000
0.006000  -93.100000
0.002200  -93.000000
0.003700  -93.000000
0.002200  -92.900000
-0.000800  -92.900000
-0.001500  -92.800000
-0.002300  -92.700000
-0.002300  -92.700000
0.002200  -92.700000
0.001500  -92.600000
0.003000  -92.600000
0.006700  -92.500000
0.007500  -92.500000
0.006700  -92.400000
0.003700  -92.400000
0.000700  -92.300000
-0.003800  -92.300000
-0.006000  -92.200000
-0.006000  -92.200000
-0.009100  -92.100000
-0.013500  -92.000000
-0.013500  -91.900000
-0.005300  -91.900000
-0.000800  -91.800000
0.006000  -91.800000
0.010500  -91.700000
0.001500  -91.600000
0.000700  -91.600000
0.003700  -91.500000
0.012700  -91.400000
0.026200  -91.400000
0.026200  -91.300000
0.022500  -91.200000
0.016500  -91.200000
0.008200  -91.100000
0.004500  -91.000000
-0.000800  -90.900000
-0.005300  -90.900000
-0.000800  -90.800000
0.012700  -90.700000
0.023200  -90.600000
0.013500  -90.600000
0.003700  -90.500000
-0.003800  -90.400000
-0.012000  -90.400000
-0.012000  -90.300000
-0.020300  -90.200000
-0.020300  -90.100000
-0.019500  -90.000000
-0.019500  -90.000000
-0.012000  -89.900000
-0.006800  -89.800000
-0.000800  -89.700000
0.004500  -89.600000
0.004500  -89.600000
0.001500  -89.500000
0.002200  -89.400000
0.004500  -89.300000
0.003000  -89.200000
0.001500  -89.100000
-0.002300  -89.100000
-0.004600  -89.000000
-0.003000  -88.900000
0.001500  -88.800000
0.005200  -88.700000
0.007500  -88.600000
0.008200  -88.500000
0.006700  -88.400000
0.007500  -88.300000
0.011200  -88.200000
0.011200  -88.100000
0.003700  -88.000000
-0.003000  -87.900000
-0.003800  -87.800000
-0.003000  -87.800000
0.000700  -87.700000
0.003000  -87.600000
0.004500  -87.500000
0.008200  -87.300000
0.009000  -87.300000
0.012000  -87.200000
0.009000  -87.000000
0.003000  -86.900000
-0.001500  -86.900000
-0.009100  -86.800000
-0.009100  -86.600000
-0.008300  -86.500000
-0.003000  -86.400000
0.001500  -86.400000
-0.000800  -86.300000
0.002200  -86.100000
0.006700  -86.000000
0.008200  -86.000000
0.004500  -85.800000
-0.001500  -85.700000
0.000700  -85.600000
0.006000  -85.500000
0.012000  -85.400000
0.015700  -85.300000
0.013500  -85.200000
0.008200  -85.100000
0.000000  -85.000000
-0.004600  -84.900000
-0.009100  -84.800000
-0.008300  -84.700000
-0.006800  -84.600000
-0.004600  -84.500000
0.001500  -84.400000
0.002200  -84.200000
0.002200  -84.200000
0.002200  -84.100000
0.003000  -83.900000
0.003000  -83.800000
0.004500  -83.700000
0.008200  -83.600000
0.004500  -83.500000
0.000700  -83.400000
0.001500  -83.300000
0.002200  -83.200000
0.000700  -83.100000
-0.001500  -83.000000
0.000000  -82.900000
0.001500  -82.800000
0.000700  -82.700000
-0.006800  -82.500000
-0.010500  -82.400000
-0.015800  -82.400000
-0.018100  -82.200000
-0.011300  -82.100000
-0.008300  -82.000000
-0.001500  -81.900000
0.003000  -81.800000
0.011200  -81.700000
0.027000  -81.600000
0.031500  -81.500000
0.030700  -81.400000
0.021700  -81.300000
0.010500  -81.100000
0.005200  -81.000000
-0.005300  -80.900000
-0.015000  -80.800000
-0.021800  -80.700000
-0.020300  -80.600000
-0.016500  -80.500000
-0.012800  -80.400000
-0.006800  -80.200000
-0.005300  -80.100000
-0.002300  -80.100000
0.005200  -79.900000
0.007500  -79.800000
0.008200  -79.700000
0.006700  -79.600000
0.002200  -79.500000
0.001500  -79.400000
-0.001500  -79.200000
-0.001500  -79.200000
0.003000  -79.100000
0.001500  -78.900000
0.004500  -78.800000
0.008200  -78.700000
0.009700  -78.600000
0.008200  -78.500000
0.008200  -78.400000
0.012000  -78.300000
0.012000  -78.200000
0.012000  -78.000000
0.008200  -77.900000
0.005200  -77.900000
0.001500  -77.700000
-0.004600  -77.600000
-0.001500  -77.500000
-0.001500  -77.400000
0.000000  -77.300000
0.002200  -77.200000
-0.002300  -77.000000
-0.005300  -77.000000
-0.006800  -76.900000
-0.006800  -76.700000
-0.005300  -76.600000
-0.001500  -76.500000
0.000000  -76.400000
-0.003000  -76.300000
-0.006800  -76.200000
-0.010500  -76.100000
-0.012000  -76.000000
-0.009100  -75.800000
-0.003800  -75.700000
0.005200  -75.600000
0.014200  -75.500000
0.027700  -75.400000
0.029200  -75.300000
0.021700  -75.200000
0.014200  -75.100000
0.008200  -75.000000
0.005200  -74.800000
0.006700  -74.700000
0.006700  -74.600000
0.000700  -74.500000
-0.002300  -74.400000
-0.003000  -74.300000
-0.008300  -74.200000
-0.006800  -74.100000
-0.009800  -74.000000
-0.014300  -73.800000
-0.012000  -73.800000
-0.014300  -73.600000
-0.009800  -73.500000
-0.003800  -73.400000
0.001500  -73.300000
0.005200  -73.200000
0.006000  -73.000000
0.020200  -72.900000
0.034500  -72.900000
0.036700  -72.700000
0.021700  -72.600000
0.001500  -72.500000
-0.014300  -72.400000
-0.021800  -72.300000
-0.016500  -72.100000
-0.009100  -72.000000
-0.003800  -71.900000
-0.001500  -71.800000
0.001500  -71.700000
-0.000800  -71.600000
-0.001500  -71.500000
-0.001500  -71.400000
-0.010500  -71.200000
-0.009800  -71.100000
-0.009800  -71.000000
-0.009100  -70.900000
-0.003000  -70.800000
-0.004600  -70.700000
0.002200  -70.600000
0.009700  -70.500000
0.014200  -70.400000
0.015700  -70.200000
0.009000  -70.100000
0.007500  -70.000000
-0.001500  -69.900000
-0.012800  -69.800000
-0.019500  -69.700000
-0.026300  -69.600000
-0.021000  -69.500000
-0.004600  -69.300000
0.019500  -69.300000
0.042000  -69.100000
0.048000  -69.000000
0.042000  -68.900000
0.027700  -68.800000
0.012000  -68.700000
-0.001500  -68.500000
-0.009100  -68.400000
-0.015800  -68.400000
-0.024000  -68.200000
-0.028500  -68.100000
-0.029300  -68.000000
-0.029300  -67.900000
-0.024000  -67.800000
-0.015000  -67.600000
-0.005300  -67.500000
0.006700  -67.400000
0.021000  -67.300000
0.025500  -67.200000
0.024000  -67.100000
0.020200  -67.000000
0.008200  -66.900000
0.000700  -66.700000
0.001500  -66.600000
0.006700  -66.500000
0.012700  -66.400000
0.015700  -66.300000
0.016500  -66.200000
0.015000  -66.100000
0.007500  -66.000000
0.003700  -65.900000
0.003000  -65.700000
0.005200  -65.600000
0.000700  -65.500000
-0.006800  -65.400000
-0.000800  -65.300000
0.003700  -65.200000
0.004500  -65.100000
0.006700  -64.900000
0.005200  -64.800000
0.010500  -64.700000
0.009000  -64.600000
0.002200  -64.500000
-0.001500  -64.400000
-0.005300  -64.300000
-0.009100  -64.100000
-0.012000  -64.000000
-0.015800  -63.900000
-0.020300  -63.800000
-0.020300  -63.700000
-0.012800  -63.600000
-0.009100  -63.500000
-0.006800  -63.300000
-0.003000  -63.200000
0.003000  -63.100000
0.008200  -63.000000
0.003000  -62.800000
0.000000  -62.700000
0.000000  -62.600000
0.003700  -62.500000
0.008200  -62.400000
0.011200  -62.200000
0.017200  -62.100000
0.015000  -62.000000
0.008200  -61.900000
0.003700  -61.700000
-0.006000  -61.600000
-0.009100  -61.500000
-0.007500  -61.400000
-0.004600  -61.200000
0.006700  -61.200000
0.015700  -61.000000
0.025500  -60.900000
0.033700  -60.800000
0.027700  -60.700000
0.013500  -60.500000
-0.000800  -60.400000
-0.018100  -60.300000
-0.029300  -60.100000
-0.030000  -60.000000
-0.030800  -59.900000
-0.023300  -59.800000
-0.015000  -59.600000
-0.004600  -59.500000
0.003000  -59.400000
0.010500  -59.300000
0.021700  -59.100000
0.027000  -59.000000
0.027000  -58.900000
0.017200  -58.800000
0.004500  -58.600000
-0.002300  -58.500000
-0.006800  -58.400000
-0.001500  -58.200000
0.000700  -58.100000
0.002200  -58.000000
0.007500  -57.900000
0.009000  -57.700000
0.012000  -57.600000
0.014200  -57.500000
0.012700  -57.400000
0.008200  -57.200000
0.000700  -57.100000
-0.003000  -57.000000
-0.009100  -56.900000
-0.015000  -56.700000
-0.014300  -56.600000
-0.012800  -56.500000
-0.009100  -56.300000
-0.003800  -56.300000
0.006000  -56.100000
0.018700  -56.000000
0.024000  -55.800000
0.026200  -55.700000
0.022500  -55.600000
0.020200  -55.400000
0.016500  -55.300000
0.000700  -55.200000
-0.015000  -55.100000
-0.029300  -54.900000
-0.035300  -54.800000
-0.027800  -54.700000
-0.020300  -54.500000
-0.010500  -54.400000
0.000700  -54.300000
0.007500  -54.100000
0.008200  -54.000000
-0.005300  -53.900000
-0.017300  -53.800000
-0.021800  -53.600000
-0.024800  -53.500000
-0.012800  -53.400000
0.000700  -53.200000
0.011200  -53.100000
0.024700  -53.000000
0.035200  -52.900000
0.036700  -52.700000
0.030000  -52.600000
0.017200  -52.500000
0.000700  -52.300000
-0.004600  -52.200000
-0.003000  -52.100000
0.006000  -52.000000
0.011200  -51.800000
0.003700  -51.700000
-0.006000  -51.600000
-0.013500  -51.400000
-0.013500  -51.300000
-0.009800  -51.200000
-0.005300  -51.100000
0.001500  -50.900000
0.010500  -50.800000
0.015700  -50.700000
0.012700  -50.600000
0.009000  -50.400000
0.000700  -50.400000
-0.002300  -50.200000
-0.005300  -50.100000
-0.010500  -50.000000
-0.015800  -49.900000
-0.018100  -49.800000
-0.002300  -49.600000
0.015700  -49.500000
0.015000  -49.400000
0.009000  -49.300000
0.001500  -49.200000
-0.008300  -49.100000
-0.009800  -49.000000
0.003000  -48.900000
0.020200  -48.700000
0.015000  -48.600000
0.004500  -48.500000
-0.005300  -48.400000
-0.016500  -48.300000
-0.019500  -48.200000
-0.018100  -48.100000
-0.008300  -47.900000
0.003000  -47.800000
0.012000  -47.700000
0.018000  -47.600000
0.027000  -47.500000
0.030700  -47.300000
0.021700  -47.300000
0.015700  -47.100000
0.006700  -47.000000
0.002200  -46.900000
0.001500  -46.800000
-0.003000  -46.700000
-0.000800  -46.600000
-0.000800  -46.400000
-0.005300  -46.400000
-0.006000  -46.200000
-0.005300  -46.100000
-0.002300  -46.000000
0.000000  -45.900000
0.001500  -45.800000
-0.000800  -45.600000
0.000700  -45.500000
0.000700  -45.400000
0.000000  -45.300000
0.006700  -45.200000
0.002200  -45.000000
-0.003000  -45.000000
-0.000800  -44.800000
0.000000  -44.700000
0.001500  -44.600000
-0.000800  -44.500000
0.006700  -44.400000
0.016500  -44.300000
0.016500  -44.100000
0.011200  -44.100000
0.005200  -43.900000
-0.005300  -43.800000
-0.017300  -43.700000
-0.019500  -43.600000
-0.018100  -43.500000
-0.015800  -43.300000
-0.019500  -43.200000
-0.027000  -43.100000
-0.027800  -43.000000
-0.023300  -42.900000
-0.008300  -42.800000
0.014200  -42.600000
0.024000  -42.500000
0.021000  -42.400000
0.025500  -42.300000
0.034500  -42.200000
0.039000  -42.000000
0.034500  -41.900000
0.020200  -41.800000
0.007500  -41.700000
0.005200  -41.600000
0.011200  -41.400000
0.015000  -41.400000
0.015000  -41.200000
0.005200  -41.100000
-0.005300  -41.000000
-0.014300  -40.900000
-0.027800  -40.700000
-0.030800  -40.600000
-0.029300  -40.500000
-0.024000  -40.400000
-0.022500  -40.300000
-0.017300  -40.100000
-0.003000  -40.100000
0.010500  -39.900000
0.021700  -39.800000
0.017200  -39.700000
0.005200  -39.600000
0.000700  -39.400000
0.001500  -39.300000
0.002200  -39.200000
0.000700  -39.100000
0.005200  -39.000000
0.016500  -38.900000
0.021000  -38.700000
0.018000  -38.700000
0.012000  -38.500000
0.001500  -38.400000
-0.001500  -38.300000
-0.008300  -38.200000
-0.025600  -38.100000
-0.027000  -38.000000
-0.023300  -37.900000
-0.013500  -37.800000
-0.001500  -37.700000
-0.003000  -37.500000
0.002200  -37.400000
0.006700  -37.300000
0.006000  -37.200000
0.013500  -37.100000
0.015000  -37.000000
0.012700  -36.900000
0.015700  -36.800000
0.021000  -36.700000
0.027000  -36.500000
0.016500  -36.500000
0.007500  -36.400000
-0.008300  -36.200000
-0.012000  -36.100000
0.000000  -36.000000
0.005200  -35.900000
0.010500  -35.800000
-0.006000  -35.700000
-0.020300  -35.600000
-0.015800  -35.500000
-0.012800  -35.400000
0.000000  -35.300000
0.009700  -35.100000
0.011200  -35.100000
0.004500  -34.900000
-0.009100  -34.800000
-0.015800  -34.700000
-0.021800  -34.700000
-0.007500  -34.600000
0.014200  -34.500000
0.023200  -34.300000
0.026200  -34.200000
0.018000  -34.200000
0.009000  -34.100000
0.001500  -34.000000
-0.003000  -33.900000
0.010500  -33.800000
0.016500  -33.700000
0.010500  -33.600000
0.010500  -33.500000
0.003000  -33.400000
-0.009100  -33.300000
-0.033000  -33.200000
-0.059300  -33.100000
-0.069100  -33.000000
-0.057000  -32.900000
-0.026300  -32.900000
-0.006800  -32.800000
0.009700  -32.700000
0.029200  -32.700000
0.035200  -32.600000
0.046500  -32.500000
0.048000  -32.400000
0.042000  -32.400000
0.032200  -32.300000
0.017200  -32.200000
0.014200  -32.100000
0.018000  -32.100000
0.009700  -32.000000
-0.006800  -32.000000
-0.024000  -31.900000
-0.026300  -31.800000
-0.016500  -31.700000
-0.007500  -31.600000
-0.002300  -31.600000
-0.003000  -31.500000
-0.001500  -31.400000
0.003000  -31.400000
0.012700  -31.300000
0.026200  -31.200000
0.027000  -31.100000
0.007500  -31.100000
-0.019500  -31.000000
-0.034600  -30.900000
-0.035300  -30.800000
-0.016500  -30.700000
0.023200  -30.700000
0.046500  -30.600000
0.048700  -30.600000
0.030700  -30.500000
0.006700  -30.400000
-0.009100  -30.300000
-0.028500  -30.200000
-0.031500  -30.200000
-0.023300  -30.100000
-0.011300  -30.000000
-0.000800  -30.000000
0.000700  -29.900000
0.006000  -29.800000
0.004500  -29.800000
-0.001500  -29.700000
-0.011300  -29.700000
-0.017300  -29.600000
-0.010500  -29.600000
-0.012000  -29.500000
0.008200  -29.400000
0.027000  -29.400000
0.024000  -29.300000
0.023200  -29.300000
0.008200  -29.200000
-0.003000  -29.100000
-0.006000  -29.100000
-0.006800  -29.000000
0.006700  -29.000000
0.015700  -28.900000
0.021000  -28.800000
0.021000  -28.800000
0.019500  -28.800000
0.015000  -28.700000
-0.009100  -28.600000
-0.038300  -28.600000
-0.061500  -28.500000
-0.053300  -28.500000
-0.019500  -28.400000
0.003000  -28.400000
0.027700  -28.300000
0.044200  -28.300000
0.044200  -28.200000
0.038200  -28.100000
0.020200  -28.100000
0.001500  -28.000000
0.001500  -28.000000
0.008200  -27.900000
0.006000  -27.900000
-0.001500  -27.800000
-0.012000  -27.800000
-0.014300  -27.700000
-0.006000  -27.700000
-0.001500  -27.600000
-0.004600  -27.600000
-0.003000  -27.500000
0.002200  -27.500000
-0.009100  -27.500000
-0.018800  -27.400000
-0.012800  -27.400000
0.000700  -27.300000
0.019500  -27.200000
0.027000  -27.200000
0.023200  -27.100000
0.003000  -27.100000
-0.018800  -27.000000
-0.028500  -27.000000
-0.035300  -27.000000
-0.024800  -26.900000
-0.006800  -26.900000
0.010500  -26.800000
0.018700  -26.800000
0.011200  -26.700000
0.011200  -26.700000
0.006000  -26.600000
-0.003800  -26.600000
-0.000800  -26.600000
0.005200  -26.600000
0.012000  -26.500000
0.013500  -26.500000
0.005200  -26.400000
-0.003000  -26.400000
-0.013500  -26.300000
-0.023300  -26.300000
-0.026300  -26.200000
-0.024000  -26.200000
-0.000800  -26.200000
0.045700  -26.100000
0.081000  -26.100000
0.076500  -26.100000
0.054000  -26.000000
0.030700  -26.000000
-0.003000  -25.900000
-0.029300  -25.900000
-0.063000  -25.900000
-0.077300  -25.800000
-0.067500  -25.800000
-0.057000  -25.700000
-0.021800  -25.700000
0.011200  -25.700000
0.030700  -25.600000
0.021700  -25.600000
-0.003800  -25.600000
-0.014300  -25.500000
-0.010500  -25.500000
0.009000  -25.400000
0.024000  -25.400000
0.024000  -25.400000
0.015000  -25.300000
0.006700  -25.300000
0.009000  -25.200000
0.015000  -25.200000
0.039000  -25.200000
0.055500  -25.100000
0.045000  -25.100000
0.026200  -25.100000
0.003000  -25.000000
-0.000800  -25.000000
0.005200  -24.900000
0.003000  -24.900000
0.003000  -24.800000
-0.009100  -24.800000
-0.015800  -24.800000
-0.021800  -24.800000
-0.023300  -24.700000
-0.023300  -24.700000
-0.023300  -24.600000
-0.006000  -24.600000
0.003000  -24.600000
0.014200  -24.500000
0.020200  -24.500000
0.010500  -24.400000
0.006000  -24.400000
0.000700  -24.400000
0.001500  -24.300000
0.003700  -24.300000
0.004500  -24.300000
-0.001500  -24.300000
-0.011300  -24.300000
-0.010500  -24.200000
-0.013500  -24.200000
-0.004600  -24.200000
0.006000  -24.100000
-0.001500  -24.100000
-0.001500  -24.100000
0.021700  -24.000000
0.038200  -24.000000
0.024000  -24.000000
0.003000  -23.900000
-0.020300  -23.900000
-0.031500  -23.900000
-0.021800  -23.900000
-0.014300  -23.800000
-0.012800  -23.800000
-0.015000  -23.800000
-0.004600  -23.700000
0.003000  -23.700000
0.001500  -23.600000
0.003000  -23.600000
-0.012800  -23.600000
-0.001500  -23.500000
0.002200  -23.500000
-0.003000  -23.400000
0.008200  -23.400000
-0.003000  -23.400000
0.000700  -23.400000
-0.000800  -23.300000
-0.002300  -23.300000
0.024000  -23.300000
0.037500  -23.200000
0.051000  -23.200000
0.050200  -23.100000
0.034500  -23.100000
0.012000  -23.100000
-0.011300  -23.000000
-0.027000  -23.000000
-0.045800  -23.000000
-0.051800  -22.900000
-0.045000  -22.900000
-0.026300  -22.900000
-0.004600  -22.800000
0.005200  -22.800000
-0.000800  -22.700000
-0.003800  -22.700000
0.000700  -22.700000
-0.001500  -22.600000
0.003000  -22.600000
0.009000  -22.500000
0.017200  -22.500000
0.030000  -22.500000
0.029200  -22.500000
0.033000  -22.400000
0.024700  -22.400000
0.010500  -22.300000
-0.001500  -22.300000
-0.018800  -22.200000
-0.024000  -22.200000
-0.006800  -22.200000
0.027700  -22.100000
0.048000  -22.100000
0.063000  -22.100000
0.059200  -22.000000
0.012000  -22.000000
-0.014300  -21.900000
-0.033000  -21.900000
-0.050300  -21.800000
-0.045000  -21.800000
-0.039800  -21.800000
-0.025600  -21.700000
-0.024000  -21.700000
-0.033000  -21.600000
-0.030800  -21.600000
-0.022500  -21.600000
-0.008300  -21.600000
0.001500  -21.500000
0.013500  -21.500000
0.009700  -21.500000
0.006000  -21.400000
0.023200  -21.400000
0.028500  -21.400000
0.026200  -21.300000
0.024000  -21.300000
0.029200  -21.300000
0.042000  -21.200000
0.039700  -21.200000
0.030700  -21.200000
0.024000  -21.200000
0.009000  -21.100000
-0.012800  -21.100000
-0.025600  -21.100000
-0.023300  -21.000000
-0.012800  -21.000000
-0.000800  -21.000000
0.014200  -20.900000
0.025500  -20.900000
0.017200  -20.800000
0.004500  -20.800000
-0.004600  -20.800000
-0.009100  -20.700000
0.003000  -20.700000
0.009700  -20.700000
0.003000  -20.700000
-0.008300  -20.700000
-0.015800  -20.600000
-0.020300  -20.600000
-0.030800  -20.500000
-0.040500  -20.500000
-0.048800  -20.500000
-0.043600  -20.400000
-0.009100  -20.400000
0.021700  -20.400000
0.033000  -20.300000
0.048000  -20.300000
0.087700  -20.300000
0.121500  -20.300000
0.098200  -20.200000
0.039700  -20.200000
0.008200  -20.200000
-0.015800  -20.100000
-0.044300  -20.100000
-0.059300  -20.000000
-0.075000  -20.000000
-0.078000  -20.000000
-0.067500  -19.900000
-0.057800  -19.900000
-0.038300  -19.900000
-0.019500  -19.800000
0.003000  -19.800000
0.009700  -19.800000
0.004500  -19.800000
0.003000  -19.700000
0.001500  -19.700000
0.003000  -19.700000
0.002200  -19.600000
0.021000  -19.600000
0.046500  -19.600000
0.052500  -19.500000
0.048000  -19.500000
0.027000  -19.500000
0.017200  -19.500000
0.008200  -19.400000
-0.012000  -19.400000
-0.016500  -19.400000
-0.018800  -19.400000
-0.010500  -19.400000
0.029200  -19.300000
0.069000  -19.300000
0.064500  -19.300000
0.044200  -19.200000
0.009000  -19.200000
-0.036800  -19.200000
-0.063800  -19.100000
-0.087800  -19.100000
-0.095300  -19.100000
-0.087100  -19.100000
-0.072800  -19.000000
-0.050300  -19.000000
-0.022500  -19.000000
0.027000  -18.900000
0.078700  -18.900000
0.102000  -18.900000
0.091500  -18.900000
0.060700  -18.900000
0.027700  -18.800000
0.011200  -18.800000
0.029200  -18.800000
0.054700  -18.700000
0.037500  -18.700000
0.004500  -18.700000
-0.020300  -18.700000
-0.035300  -18.600000
-0.027800  -18.600000
-0.030800  -18.600000
-0.036800  -18.500000
-0.038300  -18.500000
-0.038300  -18.500000
-0.023300  -18.500000
-0.010500  -18.400000
-0.007500  -18.400000
-0.009800  -18.400000
-0.015800  -18.300000
-0.016500  -18.300000
-0.011300  -18.300000
-0.000800  -18.300000
0.010500  -18.200000
0.021000  -18.200000
0.034500  -18.200000
0.045000  -18.100000
0.042000  -18.100000
0.027000  -18.100000
0.008200  -18.000000
-0.008300  -18.000000
-0.016500  -18.000000
-0.022500  -18.000000
-0.022500  -18.000000
-0.007500  -17.900000
0.014200  -17.900000
0.029200  -17.900000
0.038200  -17.900000
0.039000  -17.800000
0.026200  -17.800000
0.012700  -17.800000
0.005200  -17.700000
-0.005300  -17.700000
-0.008300  -17.700000
-0.009100  -17.700000
-0.009100  -17.600000
-0.010500  -17.600000
-0.013500  -17.600000
-0.006800  -17.600000
-0.003000  -17.600000
-0.003000  -17.500000
-0.003800  -17.500000
-0.010500  -17.500000
-0.006800  -17.500000
0.005200  -17.400000
0.012000  -17.400000
0.008200  -17.400000
0.004500  -17.300000
0.000700  -17.300000
-0.006800  -17.300000
-0.012800  -17.200000
-0.015000  -17.200000
-0.012000  -17.200000
-0.003800  -17.200000
0.012700  -17.100000
0.040500  -17.100000
0.063700  -17.100000
0.051000  -17.100000
0.019500  -17.100000
-0.004600  -17.000000
-0.034600  -17.000000
-0.046500  -17.000000
-0.046500  -17.000000
-0.048000  -16.900000
-0.033000  -16.900000
-0.014300  -16.900000
0.008200  -16.800000
0.024000  -16.800000
0.030000  -16.800000
0.039700  -16.800000
0.035200  -16.700000
0.020200  -16.700000
0.007500  -16.700000
-0.003000  -16.700000
-0.012800  -16.700000
-0.015800  -16.700000
-0.013500  -16.600000
-0.021000  -16.600000
-0.025600  -16.600000
-0.019500  -16.600000
-0.004600  -16.600000
0.023200  -16.500000
0.038200  -16.500000
0.027000  -16.500000
0.011200  -16.500000
0.003700  -16.500000
-0.004600  -16.500000
-0.006800  -16.500000
-0.005300  -16.400000
-0.003800  -16.400000
0.000000  -16.400000
-0.003800  -16.400000
-0.006000  -16.400000
-0.005300  -16.400000
-0.000800  -16.300000
0.012700  -16.300000
0.018700  -16.300000
0.012700  -16.300000
0.010500  -16.300000
-0.003000  -16.300000
-0.018100  -16.300000
-0.022500  -16.300000
-0.017300  -16.300000
0.018000  -16.300000
0.075700  -16.300000
0.115500  -16.300000
0.096700  -16.300000
0.042000  -16.300000
-0.019500  -16.300000
-0.078000  -16.200000
-0.100600  -16.200000
-0.094500  -16.200000
-0.074300  -16.200000
-0.057000  -16.200000
-0.039800  -16.200000
-0.012800  -16.200000
0.009000  -16.200000
0.034500  -16.200000
0.042000  -16.200000
0.023200  -16.200000
0.003000  -16.200000
0.000700  -16.200000
0.000700  -16.200000
-0.005300  -16.200000
-0.001500  -16.200000
0.005200  -16.200000
0.016500  -16.200000
0.017200  -16.200000
0.006000  -16.200000
0.018000  -16.200000
0.074200  -16.200000
0.148500  -16.200000
0.138700  -16.200000
0.065200  -16.200000
-0.014300  -16.200000
-0.100600  -16.200000
-0.129800  -16.200000
-0.138100  -16.200000
-0.118500  -16.200000
-0.064500  -16.200000
-0.029300  -16.200000
0.023200  -16.200000
0.042700  -16.200000
0.034500  -16.200000
0.051700  -16.200000
0.063000  -16.200000
0.059200  -16.200000
0.035200  -16.200000
0.009000  -16.200000
-0.008300  -16.200000
-0.021800  -16.200000
-0.027800  -16.200000
-0.025600  -16.200000
-0.015000  -16.200000
-0.002300  -16.200000
0.012000  -16.200000
0.018700  -16.200000
0.020200  -16.200000
0.016500  -16.200000
0.014200  -16.200000
0.015000  -16.200000
0.005200  -16.100000
0.012700  -16.100000
0.014200  -16.100000
-0.004600  -16.100000
-0.019500  -16.100000
-0.043600  -16.100000
-0.045800  -16.000000
-0.038300  -16.000000
-0.024000  -16.000000
0.001500  -16.000000
0.009000  -16.000000
0.012000  -15.900000
0.009700  -15.900000
0.004500  -15.900000
0.005200  -15.900000
0.012000  -15.900000
0.023200  -15.900000
0.027700  -15.800000
0.027700  -15.800000
0.030000  -15.800000
0.032200  -15.800000
0.024000  -15.800000
0.011200  -15.800000
0.000700  -15.800000
-0.017300  -15.800000
-0.034600  -15.800000
-0.036800  -15.700000
-0.030800  -15.700000
-0.023300  -15.700000
-0.010500  -15.700000
0.009000  -15.700000
0.030700  -15.600000
0.033700  -15.600000
0.018700  -15.600000
0.006700  -15.600000
0.003700  -15.600000
0.005200  -15.600000
-0.000800  -15.500000
-0.006800  -15.500000
0.000000  -15.500000
0.012000  -15.500000
0.027000  -15.500000
0.037500  -15.500000
0.039000  -15.400000
0.041200  -15.400000
0.024700  -15.400000
-0.000800  -15.400000
-0.018800  -15.400000
-0.044300  -15.300000
-0.057000  -15.300000
-0.059300  -15.300000
-0.057000  -15.300000
