File Name: 8standing.log
Channel 3: 'VM', 18340 values, engineering units: mV, no filters.
Channel 5: 'FX', 917 values, engineering units: deg, no filters, extrapolated from 50 to 1000 samples per second.
0.006700  2.200000
0.012000  2.200000
0.003000  2.200000
-0.007500  2.200000
-0.015000  2.200000
-0.018100  2.200000
-0.015800  2.200000
-0.015800  2.200000
-0.022500  2.200000
-0.019500  2.200000
-0.004600  2.100000
0.003000  2.100000
0.000700  2.100000
0.005200  2.100000
0.008200  2.100000
0.006700  2.100000
0.008200  2.100000
0.009000  2.100000
0.009000  2.000000
0.006700  2.000000
0.003000  2.000000
0.000000  2.000000
-0.000800  2.000000
-0.000800  2.000000
0.001500  2.000000
0.003000  1.900000
0.003000  1.900000
0.002200  1.900000
0.000700  1.900000
-0.000800  1.900000
-0.003800  1.900000
-0.004600  1.900000
-0.006000  1.800000
-0.006800  1.800000
-0.003000  1.800000
0.006000  1.800000
0.012700  1.800000
0.012700  1.800000
0.009700  1.800000
0.009000  1.800000
0.005200  1.700000
-0.003800  1.700000
-0.006000  1.700000
-0.008300  1.700000
-0.008300  1.700000
-0.005300  1.700000
-0.004600  1.700000
0.000700  1.700000
0.003000  1.700000
0.009000  1.600000
0.012000  1.600000
0.001500  1.600000
-0.003000  1.600000
-0.000800  1.600000
-0.000800  1.600000
0.000700  1.500000
0.000000  1.500000
0.001500  1.500000
0.006700  1.500000
0.006700  1.500000
0.007500  1.400000
0.006000  1.400000
0.004500  1.400000
0.005200  1.400000
0.003700  1.400000
0.002200  1.400000
0.000700  1.400000
0.000700  1.400000
0.001500  1.300000
0.004500  1.300000
0.003000  1.300000
-0.000800  1.300000
-0.001500  1.300000
0.001500  1.300000
0.001500  1.300000
0.003000  1.300000
0.000700  1.200000
-0.000800  1.200000
0.000700  1.200000
0.000700  1.200000
0.000000  1.100000
-0.003800  1.100000
-0.003000  1.100000
-0.000800  1.100000
-0.004600  1.100000
-0.002300  1.100000
-0.001500  1.100000
-0.003000  1.100000
-0.003000  1.100000
-0.003000  1.100000
-0.004600  1.100000
-0.004600  1.100000
-0.001500  1.100000
0.001500  1.000000
0.003700  1.000000
0.003700  1.000000
0.005200  1.000000
0.004500  1.000000
0.006000  1.000000
0.008200  1.000000
0.006000  0.900000
0.005200  0.900000
0.002200  0.900000
-0.000800  0.900000
-0.000800  0.900000
0.001500  0.900000
0.000000  0.900000
-0.000800  0.900000
-0.001500  0.900000
-0.004600  0.900000
-0.004600  0.900000
-0.003000  0.900000
0.000700  0.800000
0.005200  0.800000
0.007500  0.800000
0.008200  0.800000
0.007500  0.800000
0.003700  0.800000
0.003700  0.800000
0.003000  0.700000
0.002200  0.700000
0.001500  0.700000
0.003000  0.700000
0.002200  0.700000
-0.001500  0.700000
-0.000800  0.700000
0.000700  0.700000
0.001500  0.700000
-0.001500  0.600000
-0.001500  0.600000
0.000700  0.600000
0.001500  0.600000
0.001500  0.600000
-0.000800  0.600000
-0.000800  0.600000
-0.000800  0.600000
-0.002300  0.600000
-0.003000  0.600000
-0.006800  0.500000
-0.007500  0.500000
-0.002300  0.500000
0.005200  0.500000
0.012000  0.500000
0.009700  0.500000
0.002200  0.500000
0.001500  0.500000
0.000700  0.500000
-0.001500  0.400000
-0.001500  0.400000
0.000000  0.400000
0.000000  0.400000
0.001500  0.400000
-0.001500  0.400000
-0.003000  0.400000
0.000700  0.400000
0.000700  0.400000
0.000700  0.400000
0.000000  0.400000
-0.000800  0.300000
-0.000800  0.300000
0.001500  0.300000
0.004500  0.300000
0.003000  0.300000
0.001500  0.300000
0.000700  0.300000
0.000000  0.300000
0.001500  0.300000
0.002200  0.300000
0.001500  0.200000
0.001500  0.200000
-0.001500  0.200000
-0.001500  0.200000
-0.000800  0.200000
-0.001500  0.200000
0.003000  0.200000
0.005200  0.200000
0.000700  0.200000
-0.000800  0.200000
-0.003000  0.100000
-0.004600  0.100000
-0.007500  0.100000
-0.004600  0.100000
0.004500  0.100000
0.006700  0.100000
0.003000  0.100000
-0.003000  0.000000
-0.004600  0.000000
0.001500  0.000000
0.000700  0.000000
0.000700  0.000000
0.002200  0.000000
-0.001500  0.000000
0.000700  0.000000
0.003000  0.000000
-0.002300  0.000000
-0.006800  -0.100000
-0.005300  -0.100000
-0.003800  -0.100000
-0.004600  -0.100000
-0.003800  -0.100000
-0.005300  -0.200000
-0.006000  -0.200000
-0.005300  -0.200000
-0.003800  -0.200000
-0.000800  -0.200000
0.000700  -0.200000
0.001500  -0.200000
0.002200  -0.200000
0.003000  -0.200000
0.001500  -0.300000
0.000700  -0.300000
-0.000800  -0.300000
-0.003000  -0.300000
-0.001500  -0.300000
0.000000  -0.300000
0.003700  -0.400000
0.006700  -0.400000
0.007500  -0.400000
0.007500  -0.400000
0.009000  -0.400000
0.007500  -0.500000
0.006700  -0.500000
0.009000  -0.500000
0.005200  -0.500000
0.005200  -0.500000
0.005200  -0.500000
0.004500  -0.500000
0.005200  -0.500000
0.005200  -0.500000
0.004500  -0.500000
0.003700  -0.500000
0.003700  -0.500000
0.004500  -0.500000
0.003700  -0.500000
0.000000  -0.500000
0.000700  -0.500000
0.002200  -0.500000
0.000700  -0.500000
0.002200  -0.500000
0.004500  -0.500000
0.005200  -0.600000
0.004500  -0.600000
0.003000  -0.600000
0.000700  -0.600000
0.001500  -0.600000
0.004500  -0.600000
0.003000  -0.600000
0.003700  -0.600000
0.001500  -0.600000
0.000000  -0.600000
0.003000  -0.700000
0.003000  -0.700000
0.000700  -0.700000
-0.003000  -0.700000
-0.005300  -0.700000
-0.008300  -0.700000
-0.009800  -0.700000
-0.009100  -0.700000
-0.010500  -0.800000
-0.010500  -0.800000
-0.005300  -0.800000
0.000700  -0.800000
0.001500  -0.800000
-0.003000  -0.800000
-0.001500  -0.800000
-0.003000  -0.800000
-0.003800  -0.900000
0.000000  -0.900000
0.003700  -0.900000
0.012700  -0.900000
0.012700  -0.900000
0.005200  -0.900000
0.000700  -0.900000
0.000000  -0.900000
0.002200  -0.900000
0.001500  -0.900000
0.001500  -0.900000
0.000700  -0.900000
0.001500  -1.000000
0.001500  -1.000000
0.001500  -1.000000
0.005200  -1.000000
0.006000  -1.000000
0.008200  -1.000000
0.005200  -1.000000
0.002200  -1.000000
0.003000  -1.100000
0.002200  -1.100000
0.001500  -1.100000
0.001500  -1.100000
0.001500  -1.100000
0.000700  -1.100000
-0.000800  -1.100000
-0.003800  -1.100000
-0.001500  -1.100000
0.003000  -1.200000
0.002200  -1.200000
0.000700  -1.200000
0.000000  -1.200000
0.000000  -1.200000
-0.002300  -1.300000
-0.003800  -1.300000
-0.005300  -1.300000
-0.004600  -1.300000
-0.001500  -1.300000
-0.002300  -1.300000
-0.000800  -1.300000
0.001500  -1.300000
0.003000  -1.300000
0.001500  -1.300000
0.003000  -1.400000
0.004500  -1.400000
0.003700  -1.400000
0.003700  -1.400000
0.001500  -1.400000
0.001500  -1.400000
0.001500  -1.400000
0.001500  -1.400000
0.000000  -1.400000
-0.002300  -1.400000
-0.001500  -1.500000
-0.000800  -1.500000
0.000700  -1.500000
0.000000  -1.500000
0.000700  -1.500000
0.003000  -1.500000
0.000700  -1.500000
-0.000800  -1.500000
-0.001500  -1.500000
-0.003800  -1.500000
-0.005300  -1.500000
-0.005300  -1.500000
-0.000800  -1.500000
0.000700  -1.600000
0.000700  -1.600000
0.003000  -1.600000
0.004500  -1.600000
0.004500  -1.600000
0.001500  -1.600000
0.000700  -1.600000
0.000700  -1.700000
-0.000800  -1.700000
0.000700  -1.700000
0.003700  -1.700000
0.006000  -1.700000
0.008200  -1.700000
0.011200  -1.700000
0.009700  -1.700000
0.009000  -1.700000
0.005200  -1.800000
0.000000  -1.800000
0.000700  -1.800000
-0.003000  -1.800000
-0.003000  -1.800000
-0.003000  -1.800000
-0.003800  -1.800000
-0.000800  -1.800000
0.001500  -1.800000
0.006000  -1.800000
0.008200  -1.900000
0.006700  -1.900000
0.004500  -1.900000
0.001500  -1.900000
-0.000800  -1.900000
-0.000800  -1.900000
-0.001500  -1.900000
-0.003000  -1.900000
-0.003000  -1.900000
-0.001500  -2.000000
-0.000800  -2.000000
0.001500  -2.000000
0.000700  -2.000000
-0.003000  -2.000000
-0.001500  -2.000000
0.000000  -2.000000
-0.000800  -2.000000
-0.001500  -2.000000
-0.001500  -2.000000
0.000000  -2.100000
0.000000  -2.100000
0.001500  -2.100000
0.003000  -2.100000
0.001500  -2.100000
0.001500  -2.100000
0.001500  -2.100000
0.000700  -2.100000
-0.003000  -2.100000
-0.002300  -2.100000
-0.003000  -2.100000
-0.006800  -2.100000
-0.006800  -2.100000
-0.006800  -2.100000
-0.003800  -2.100000
-0.001500  -2.100000
0.000700  -2.100000
0.003000  -2.100000
0.006700  -2.100000
0.011200  -2.100000
0.009000  -2.100000
0.007500  -2.100000
0.006000  -2.200000
0.004500  -2.200000
0.004500  -2.200000
0.003700  -2.200000
0.004500  -2.100000
0.003000  -2.100000
0.001500  -2.100000
0.000000  -2.100000
-0.000800  -2.100000
0.000000  -2.100000
-0.001500  -2.100000
-0.002300  -2.100000
-0.001500  -2.100000
-0.002300  -2.100000
-0.001500  -2.100000
0.000700  -2.100000
0.001500  -2.100000
0.001500  -2.000000
0.003000  -2.000000
0.003000  -2.000000
0.003700  -2.000000
0.003000  -2.000000
0.003000  -2.000000
0.003700  -2.000000
0.005200  -2.000000
0.007500  -2.000000
0.006000  -2.000000
0.002200  -2.000000
0.000000  -2.000000
-0.000800  -2.000000
-0.001500  -2.000000
-0.000800  -2.000000
-0.003000  -2.000000
-0.005300  -2.000000
-0.005300  -2.000000
-0.003000  -1.900000
-0.000800  -1.900000
-0.003000  -1.900000
-0.001500  -1.900000
-0.000800  -1.900000
0.000000  -1.900000
-0.000800  -1.900000
0.000000  -1.900000
0.000700  -1.900000
0.001500  -1.900000
0.003000  -1.900000
0.000700  -1.900000
-0.000800  -1.900000
-0.003000  -1.900000
-0.003000  -1.900000
-0.003000  -1.900000
-0.003000  -1.900000
-0.001500  -1.900000
0.003000  -1.900000
0.002200  -1.900000
0.001500  -1.800000
0.006000  -1.800000
0.006700  -1.800000
0.006700  -1.800000
0.006700  -1.800000
0.006700  -1.800000
0.009000  -1.800000
0.007500  -1.800000
0.003000  -1.800000
-0.000800  -1.800000
-0.003000  -1.800000
-0.001500  -1.800000
0.000000  -1.800000
-0.000800  -1.800000
-0.001500  -1.800000
-0.000800  -1.800000
0.000000  -1.800000
0.000000  -1.800000
-0.001500  -1.700000
-0.001500  -1.700000
-0.003800  -1.700000
-0.002300  -1.700000
-0.000800  -1.700000
0.001500  -1.700000
0.001500  -1.700000
0.002200  -1.700000
0.004500  -1.700000
0.001500  -1.700000
-0.001500  -1.700000
0.000000  -1.600000
-0.000800  -1.600000
-0.001500  -1.600000
0.001500  -1.600000
0.004500  -1.600000
0.005200  -1.600000
0.007500  -1.600000
0.007500  -1.600000
0.003700  -1.600000
0.000700  -1.600000
-0.002300  -1.600000
-0.003800  -1.600000
-0.001500  -1.600000
-0.000800  -1.500000
0.001500  -1.500000
0.006700  -1.500000
0.007500  -1.500000
0.005200  -1.500000
0.000700  -1.500000
0.000000  -1.500000
0.001500  -1.500000
0.000700  -1.500000
0.002200  -1.500000
0.001500  -1.500000
0.000000  -1.400000
0.000700  -1.400000
0.000700  -1.400000
-0.000800  -1.400000
-0.000800  -1.400000
-0.000800  -1.400000
-0.000800  -1.400000
-0.001500  -1.400000
-0.004600  -1.400000
-0.004600  -1.400000
-0.003000  -1.400000
-0.001500  -1.400000
-0.001500  -1.400000
0.001500  -1.400000
0.001500  -1.400000
0.002200  -1.400000
0.002200  -1.400000
0.003000  -1.300000
0.004500  -1.300000
0.000700  -1.300000
0.003700  -1.300000
0.003000  -1.300000
0.001500  -1.300000
0.002200  -1.300000
0.001500  -1.300000
0.003000  -1.300000
0.004500  -1.300000
0.003000  -1.300000
0.000700  -1.300000
0.001500  -1.300000
0.000700  -1.300000
-0.001500  -1.300000
-0.002300  -1.300000
-0.005300  -1.300000
-0.005300  -1.300000
-0.003000  -1.200000
-0.003000  -1.200000
-0.002300  -1.200000
-0.000800  -1.200000
-0.000800  -1.200000
-0.001500  -1.200000
-0.002300  -1.200000
-0.004600  -1.200000
-0.004600  -1.200000
0.000700  -1.200000
0.003700  -1.100000
0.003000  -1.100000
0.002200  -1.100000
0.004500  -1.100000
0.006000  -1.100000
0.003700  -1.100000
-0.000800  -1.100000
-0.003000  -1.100000
-0.001500  -1.100000
0.003000  -1.100000
0.003000  -1.100000
-0.000800  -1.100000
-0.003000  -1.100000
-0.000800  -1.100000
0.001500  -1.100000
-0.004600  -1.100000
-0.006800  -1.100000
-0.006000  -1.000000
-0.001500  -1.000000
-0.001500  -1.000000
-0.000800  -1.000000
0.001500  -1.000000
0.002200  -1.000000
0.005200  -1.000000
0.004500  -1.000000
0.001500  -1.000000
0.003000  -1.000000
0.001500  -1.000000
0.001500  -1.000000
0.003700  -1.000000
0.000700  -1.000000
-0.001500  -1.000000
-0.002300  -1.000000
-0.003000  -1.000000
-0.000800  -1.000000
0.002200  -1.000000
0.001500  -1.000000
0.002200  -0.900000
0.004500  -0.900000
0.003000  -0.900000
0.006000  -0.900000
0.006700  -0.900000
0.005200  -0.900000
0.006000  -0.900000
0.006000  -0.900000
0.006700  -0.900000
0.006000  -0.900000
0.004500  -0.900000
0.003000  -0.900000
0.004500  -0.900000
0.006700  -0.900000
0.003000  -0.900000
0.001500  -0.900000
0.001500  -0.900000
-0.000800  -0.900000
-0.001500  -0.900000
-0.001500  -0.900000
0.000000  -0.800000
0.001500  -0.800000
0.000000  -0.800000
-0.003000  -0.800000
-0.004600  -0.800000
-0.002300  -0.800000
-0.000800  -0.800000
0.002200  -0.800000
0.000700  -0.800000
-0.001500  -0.800000
0.000000  -0.800000
-0.001500  -0.800000
-0.001500  -0.800000
-0.002300  -0.700000
-0.002300  -0.700000
0.000700  -0.700000
-0.000800  -0.700000
-0.000800  -0.700000
0.001500  -0.700000
0.003000  -0.700000
0.002200  -0.700000
0.004500  -0.700000
0.006700  -0.700000
0.003000  -0.600000
0.001500  -0.600000
0.005200  -0.600000
0.008200  -0.600000
0.009000  -0.600000
0.007500  -0.600000
0.009000  -0.600000
0.012000  -0.600000
0.006000  -0.600000
0.003700  -0.600000
0.005200  -0.600000
0.005200  -0.500000
0.002200  -0.500000
-0.002300  -0.500000
0.000700  -0.500000
0.001500  -0.500000
0.000000  -0.500000
-0.004600  -0.500000
-0.006000  -0.500000
-0.003000  -0.500000
-0.006800  -0.500000
-0.009100  -0.500000
-0.010500  -0.500000
-0.009800  -0.500000
-0.006800  -0.500000
-0.007500  -0.500000
-0.008300  -0.500000
-0.005300  -0.500000
-0.003800  -0.500000
-0.000800  -0.400000
0.003700  -0.400000
0.005200  -0.400000
0.006700  -0.400000
0.006000  -0.400000
0.003000  -0.400000
0.003000  -0.400000
0.003700  -0.300000
0.002200  -0.300000
0.001500  -0.300000
0.000700  -0.300000
0.000700  -0.300000
0.004500  -0.300000
0.007500  -0.200000
0.004500  -0.200000
-0.001500  -0.200000
-0.003000  -0.200000
-0.002300  -0.200000
0.000700  -0.200000
0.004500  -0.200000
0.002200  -0.100000
0.001500  -0.100000
-0.003000  -0.100000
-0.006000  -0.100000
-0.003000  -0.100000
-0.000800  -0.100000
-0.000800  -0.100000
-0.003000  0.000000
0.000700  0.000000
0.000700  0.000000
0.000700  0.000000
0.005200  0.000000
0.006700  0.000000
0.008200  0.000000
0.004500  0.000000
0.002200  0.000000
0.001500  0.000000
0.001500  0.100000
0.003000  0.100000
-0.000800  0.100000
-0.002300  0.100000
-0.002300  0.100000
0.000700  0.100000
0.001500  0.100000
-0.000800  0.100000
-0.000800  0.200000
-0.003000  0.200000
-0.001500  0.200000
-0.001500  0.200000
0.000700  0.200000
0.004500  0.200000
0.004500  0.200000
0.004500  0.300000
0.004500  0.300000
0.004500  0.300000
0.004500  0.300000
0.003000  0.300000
0.001500  0.300000
0.003000  0.300000
0.004500  0.300000
0.002200  0.300000
0.001500  0.300000
-0.001500  0.400000
-0.003000  0.400000
-0.001500  0.400000
0.000700  0.400000
0.000700  0.400000
0.001500  0.400000
-0.000800  0.400000
-0.003800  0.400000
-0.003800  0.400000
-0.000800  0.400000
0.001500  0.400000
0.000700  0.400000
0.003700  0.400000
0.005200  0.400000
0.003000  0.400000
0.008200  0.400000
0.009000  0.400000
0.008200  0.400000
0.006700  0.500000
0.003000  0.500000
0.002200  0.500000
0.000700  0.500000
0.000700  0.500000
0.000700  0.500000
-0.000800  0.500000
0.001500  0.500000
0.000700  0.600000
-0.001500  0.600000
-0.002300  0.600000
-0.003000  0.600000
-0.004600  0.600000
-0.003000  0.600000
-0.003000  0.600000
-0.002300  0.600000
-0.003000  0.600000
-0.002300  0.700000
0.003000  0.700000
0.003000  0.700000
0.003000  0.700000
0.003700  0.700000
0.002200  0.700000
0.000700  0.700000
0.001500  0.700000
0.004500  0.700000
0.003000  0.800000
0.002200  0.800000
0.002200  0.800000
0.000700  0.800000
-0.000800  0.800000
-0.001500  0.800000
0.000700  0.800000
0.000700  0.800000
-0.000800  0.800000
-0.003800  0.800000
-0.003800  0.900000
-0.003000  0.900000
-0.004600  0.900000
-0.002300  0.900000
0.000700  0.900000
0.003000  0.900000
0.001500  0.900000
0.000000  0.900000
-0.003000  0.900000
-0.005300  0.900000
-0.005300  0.900000
-0.006000  0.900000
-0.004600  0.900000
-0.001500  0.900000
0.001500  0.900000
0.003700  1.000000
0.005200  1.000000
0.006700  1.000000
0.006700  1.000000
0.005200  1.000000
0.000700  1.000000
-0.003000  1.000000
-0.004600  1.000000
-0.003800  1.000000
-0.001500  1.100000
-0.003000  1.100000
-0.003000  1.100000
-0.003000  1.100000
-0.002300  1.100000
-0.002300  1.100000
-0.004600  1.100000
-0.003000  1.100000
-0.000800  1.200000
0.001500  1.200000
0.005200  1.200000
0.004500  1.200000
0.006700  1.200000
0.009000  1.200000
0.008200  1.200000
0.009700  1.200000
0.009000  1.200000
0.006700  1.300000
0.006700  1.300000
0.008200  1.300000
0.009000  1.300000
0.006700  1.300000
0.003000  1.300000
0.002200  1.300000
0.004500  1.300000
0.005200  1.300000
0.003000  1.300000
0.003000  1.300000
0.001500  1.300000
0.001500  1.300000
0.002200  1.300000
0.000700  1.400000
0.000000  1.400000
0.000000  1.400000
-0.000800  1.400000
-0.002300  1.400000
-0.000800  1.400000
-0.001500  1.400000
-0.000800  1.400000
0.000700  1.400000
0.002200  1.400000
0.003700  1.500000
0.003700  1.500000
0.001500  1.500000
0.000700  1.500000
0.001500  1.500000
0.000700  1.500000
0.001500  1.500000
0.004500  1.500000
0.003000  1.500000
0.000700  1.500000
0.001500  1.600000
-0.002300  1.600000
-0.005300  1.600000
-0.002300  1.600000
-0.001500  1.600000
-0.000800  1.600000
-0.001500  1.600000
-0.005300  1.600000
-0.003000  1.600000
0.003700  1.700000
0.008200  1.700000
0.005200  1.700000
0.003000  1.700000
0.003000  1.700000
0.000000  1.700000
0.001500  1.700000
-0.001500  1.700000
-0.006000  1.800000
-0.005300  1.800000
-0.006000  1.800000
-0.006800  1.800000
-0.003000  1.800000
-0.001500  1.800000
-0.000800  1.800000
0.001500  1.800000
-0.001500  1.800000
-0.006000  1.800000
-0.003800  1.800000
-0.000800  1.800000
0.000700  1.800000
0.003700  1.800000
0.003000  1.900000
0.000700  1.900000
-0.001500  1.900000
-0.003000  1.900000
-0.000800  1.900000
-0.000800  1.900000
0.000000  1.900000
-0.000800  1.900000
-0.000800  1.900000
-0.001500  1.900000
-0.002300  1.900000
0.000000  1.900000
0.001500  1.900000
0.000700  2.000000
-0.001500  2.000000
-0.000800  2.000000
0.000700  2.000000
0.001500  2.000000
0.001500  2.000000
0.000700  2.000000
0.005200  2.000000
0.007500  2.000000
0.005200  2.000000
0.003700  2.000000
0.003000  2.100000
0.003000  2.100000
0.005200  2.100000
0.010500  2.100000
0.009000  2.100000
0.005200  2.100000
0.005200  2.100000
0.006000  2.100000
0.004500  2.100000
0.004500  2.100000
0.001500  2.200000
0.004500  2.200000
0.006000  2.200000
0.004500  2.200000
0.003000  2.200000
-0.000800  2.200000
-0.004600  2.200000
-0.003800  2.200000
-0.002300  2.200000
-0.004600  2.200000
-0.005300  2.200000
-0.003800  2.200000
-0.003800  2.200000
-0.002300  2.200000
-0.003000  2.200000
-0.000800  2.300000
0.000000  2.300000
-0.000800  2.300000
-0.001500  2.300000
-0.004600  2.300000
-0.002300  2.300000
-0.003000  2.300000
-0.004600  2.300000
-0.000800  2.300000
-0.000800  2.300000
0.000700  2.300000
0.001500  2.400000
0.003000  2.400000
0.008200  2.400000
0.009700  2.400000
0.008200  2.400000
0.004500  2.400000
0.001500  2.400000
0.003000  2.400000
0.005200  2.400000
0.005200  2.400000
0.003000  2.400000
0.000000  2.400000
0.001500  2.400000
0.003700  2.500000
0.008200  2.500000
0.012000  2.500000
0.005200  2.500000
0.001500  2.500000
0.003700  2.500000
0.000700  2.500000
-0.006000  2.500000
-0.008300  2.500000
-0.006000  2.500000
-0.006800  2.500000
-0.005300  2.600000
-0.003000  2.600000
-0.003800  2.600000
-0.003000  2.600000
-0.005300  2.600000
-0.004600  2.600000
-0.004600  2.600000
-0.005300  2.600000
-0.002300  2.600000
0.000000  2.600000
0.000700  2.600000
0.000000  2.600000
-0.003800  2.600000
-0.003000  2.600000
-0.003000  2.600000
-0.003000  2.600000
-0.001500  2.600000
0.000700  2.600000
0.000700  2.600000
0.004500  2.600000
0.008200  2.600000
0.004500  2.600000
0.003000  2.700000
0.003000  2.700000
0.003000  2.700000
0.003000  2.700000
0.003000  2.700000
0.000700  2.700000
0.000000  2.700000
0.004500  2.700000
0.006700  2.700000
0.007500  2.700000
0.009700  2.700000
0.010500  2.700000
0.009000  2.700000
0.008200  2.700000
0.005200  2.700000
0.003000  2.700000
0.003000  2.700000
0.004500  2.700000
0.005200  2.700000
0.004500  2.700000
0.003000  2.700000
0.002200  2.700000
0.000000  2.700000
-0.000800  2.700000
0.000000  2.700000
-0.001500  2.700000
-0.001500  2.700000
0.000700  2.700000
-0.000800  2.700000
-0.003000  2.700000
-0.003000  2.700000
-0.001500  2.700000
-0.000800  2.700000
-0.000800  2.700000
0.000000  2.700000
0.000700  2.700000
0.001500  2.700000
0.001500  2.700000
0.003000  2.700000
-0.001500  2.700000
-0.009100  2.700000
-0.007500  2.700000
-0.008300  2.700000
-0.009100  2.700000
-0.008300  2.700000
-0.012000  2.700000
-0.009800  2.700000
-0.003000  2.700000
0.003000  2.700000
0.008200  2.700000
0.009000  2.700000
0.012000  2.700000
0.015700  2.700000
0.019500  2.800000
0.013500  2.800000
0.008200  2.800000
0.007500  2.800000
0.000700  2.800000
-0.000800  2.800000
0.000700  2.800000
0.003000  2.800000
0.001500  2.800000
0.000700  2.800000
0.002200  2.900000
0.000700  2.900000
-0.000800  2.900000
-0.001500  2.900000
-0.000800  2.900000
-0.001500  2.900000
-0.002300  2.900000
-0.002300  2.900000
-0.002300  2.900000
-0.000800  2.900000
0.006000  2.900000
0.010500  3.000000
0.008200  3.000000
0.005200  3.000000
0.005200  3.000000
0.003000  3.000000
0.002200  3.000000
0.004500  3.000000
0.003700  3.000000
-0.000800  3.000000
-0.002300  3.000000
-0.003800  3.000000
-0.003000  3.000000
0.000700  3.000000
0.003000  3.100000
0.005200  3.100000
0.004500  3.100000
0.000000  3.100000
-0.001500  3.100000
0.000000  3.100000
0.003000  3.100000
0.003000  3.100000
0.000700  3.100000
-0.001500  3.100000
-0.003000  3.100000
-0.003000  3.100000
-0.003000  3.100000
-0.001500  3.200000
-0.001500  3.200000
-0.004600  3.200000
-0.004600  3.200000
-0.004600  3.200000
-0.002300  3.200000
0.000000  3.200000
-0.003800  3.200000
-0.005300  3.200000
-0.006800  3.300000
-0.004600  3.300000
-0.000800  3.300000
-0.001500  3.300000
0.000700  3.300000
0.004500  3.300000
0.003000  3.300000
0.003700  3.300000
0.002200  3.400000
0.000700  3.400000
-0.000800  3.400000
-0.003800  3.400000
-0.004600  3.400000
-0.005300  3.400000
-0.003800  3.400000
-0.003000  3.500000
-0.000800  3.500000
0.003000  3.500000
0.002200  3.500000
0.003000  3.500000
0.000000  3.500000
-0.001500  3.500000
-0.000800  3.600000
0.000000  3.600000
0.000700  3.600000
0.001500  3.600000
0.002200  3.600000
0.003000  3.700000
0.003000  3.700000
0.000700  3.700000
0.001500  3.800000
0.003000  3.800000
0.006700  3.800000
0.009000  3.900000
0.006700  3.900000
0.005200  3.900000
0.004500  4.000000
0.004500  4.000000
0.000700  4.000000
0.001500  4.000000
0.001500  4.000000
0.002200  4.100000
0.000700  4.100000
-0.001500  4.200000
0.000700  4.200000
0.000000  4.300000
0.000700  4.300000
-0.002300  4.300000
-0.003800  4.400000
0.000000  4.400000
0.001500  4.500000
0.001500  4.500000
0.002200  4.500000
0.006700  4.600000
0.008200  4.600000
0.009700  4.700000
0.008200  4.700000
0.006700  4.700000
0.010500  4.800000
0.009000  4.800000
0.005200  4.900000
0.001500  4.900000
0.000000  4.900000
0.000000  5.000000
-0.001500  5.000000
-0.003800  5.100000
-0.004600  5.200000
-0.004600  5.200000
-0.003800  5.300000
-0.003000  5.300000
-0.001500  5.300000
-0.001500  5.400000
-0.003000  5.400000
-0.003000  5.500000
-0.003000  5.500000
-0.003800  5.600000
-0.006000  5.700000
-0.006800  5.700000
-0.006000  5.800000
-0.006000  5.800000
-0.001500  5.800000
0.002200  5.900000
0.001500  5.900000
0.003000  6.000000
0.003000  6.100000
0.001500  6.100000
0.003000  6.200000
0.005200  6.200000
0.006000  6.300000
0.006000  6.300000
0.004500  6.400000
0.006700  6.500000
0.009000  6.500000
0.009000  6.600000
0.009000  6.600000
0.005200  6.700000
0.003000  6.700000
0.001500  6.800000
0.000700  6.800000
-0.001500  6.900000
-0.002300  7.000000
-0.001500  7.000000
-0.000800  7.100000
-0.001500  7.200000
0.000000  7.200000
0.003000  7.200000
0.000700  7.300000
0.000700  7.400000
0.000700  7.400000
0.000700  7.500000
-0.000800  7.600000
-0.005300  7.600000
-0.003000  7.700000
-0.003800  7.700000
-0.003000  7.800000
-0.001500  7.900000
-0.002300  7.900000
-0.000800  8.000000
-0.001500  8.100000
0.000700  8.100000
0.001500  8.200000
0.000000  8.200000
0.000700  8.300000
0.000000  8.400000
0.000000  8.400000
-0.000800  8.500000
-0.003000  8.500000
-0.003000  8.600000
-0.003000  8.700000
-0.001500  8.800000
0.000000  8.800000
0.002200  8.900000
0.001500  9.000000
-0.000800  9.000000
-0.003000  9.100000
-0.003000  9.100000
-0.001500  9.200000
0.000000  9.300000
0.000700  9.400000
0.000700  9.400000
0.000000  9.500000
0.000700  9.500000
0.003000  9.600000
0.004500  9.700000
0.004500  9.800000
0.003000  9.900000
0.003000  9.900000
0.002200  10.000000
0.001500  10.100000
0.003000  10.100000
0.003000  10.200000
0.003700  10.300000
0.004500  10.300000
0.004500  10.400000
0.005200  10.500000
0.005200  10.600000
0.006000  10.700000
0.008200  10.700000
0.007500  10.800000
0.007500  10.900000
0.006700  10.900000
0.006000  11.000000
0.005200  11.100000
0.004500  11.200000
0.004500  11.200000
0.001500  11.300000
0.001500  11.400000
0.000000  11.500000
-0.000800  11.600000
0.000700  11.700000
0.001500  11.700000
0.000700  11.800000
0.001500  11.900000
0.003000  12.000000
0.001500  12.100000
0.000700  12.100000
-0.000800  12.200000
-0.003000  12.300000
-0.003000  12.400000
-0.003800  12.400000
-0.002300  12.500000
-0.004600  12.600000
-0.006000  12.700000
-0.004600  12.700000
-0.005300  12.800000
-0.005300  12.900000
-0.004600  13.000000
-0.005300  13.000000
-0.003000  13.100000
-0.000800  13.200000
0.000000  13.300000
-0.000800  13.400000
-0.003000  13.500000
-0.006000  13.500000
-0.005300  13.600000
-0.003000  13.700000
-0.002300  13.800000
-0.002300  13.800000
0.000700  13.900000
0.000700  14.000000
0.000000  14.000000
0.001500  14.100000
0.001500  14.200000
0.001500  14.300000
0.003700  14.400000
0.005200  14.400000
0.004500  14.500000
0.004500  14.600000
0.001500  14.700000
0.002200  14.800000
0.005200  14.900000
0.006000  15.000000
0.004500  15.000000
0.002200  15.100000
0.003000  15.200000
0.003000  15.300000
0.001500  15.400000
0.000700  15.500000
0.002200  15.500000
0.004500  15.600000
0.005200  15.700000
0.004500  15.800000
0.005200  15.900000
0.005200  16.000000
0.003000  16.100000
0.002200  16.200000
0.000700  16.200000
0.000000  16.300000
0.001500  16.400000
0.000000  16.500000
0.000000  16.600000
-0.000800  16.600000
-0.002300  16.700000
-0.000800  16.800000
0.003000  16.900000
0.003000  17.000000
0.000700  17.100000
0.000700  17.100000
-0.000800  17.200000
-0.001500  17.300000
-0.000800  17.400000
0.000000  17.500000
-0.000800  17.600000
-0.002300  17.700000
-0.001500  17.800000
-0.001500  17.800000
-0.003000  17.900000
-0.001500  18.000000
-0.000800  18.100000
-0.002300  18.200000
-0.003000  18.300000
-0.001500  18.400000
-0.000800  18.400000
0.000000  18.500000
-0.002300  18.600000
-0.000800  18.700000
0.002200  18.800000
0.001500  18.900000
0.003000  18.900000
0.003000  19.000000
0.001500  19.100000
0.003000  19.200000
0.005200  19.300000
0.004500  19.300000
0.004500  19.400000
0.004500  19.500000
0.004500  19.600000
0.006700  19.700000
0.004500  19.800000
0.004500  19.800000
0.003000  19.900000
-0.000800  20.000000
-0.001500  20.100000
-0.000800  20.200000
0.000700  20.200000
0.000700  20.300000
0.002200  20.400000
0.005200  20.500000
0.004500  20.600000
0.003000  20.700000
0.001500  20.700000
0.003700  20.800000
0.005200  20.900000
0.003000  21.000000
0.004500  21.100000
0.003000  21.100000
0.001500  21.200000
0.004500  21.300000
0.007500  21.400000
0.006700  21.500000
0.006000  21.500000
0.005200  21.600000
0.003000  21.700000
0.000000  21.700000
-0.001500  21.800000
-0.002300  21.900000
-0.001500  22.000000
-0.001500  22.000000
-0.002300  22.100000
-0.003800  22.200000
-0.003000  22.300000
0.000000  22.400000
-0.000800  22.500000
-0.001500  22.500000
-0.000800  22.600000
-0.000800  22.700000
-0.000800  22.800000
-0.005300  22.800000
-0.006800  22.900000
-0.006800  23.000000
-0.010500  23.000000
-0.012000  23.100000
-0.012800  23.200000
-0.010500  23.300000
-0.009100  23.400000
-0.005300  23.400000
-0.000800  23.500000
-0.001500  23.600000
-0.002300  23.700000
-0.000800  23.800000
0.001500  23.800000
0.006000  23.900000
0.006700  24.000000
0.006700  24.000000
0.005200  24.100000
0.004500  24.200000
0.006700  24.300000
0.007500  24.300000
0.008200  24.400000
0.007500  24.500000
0.005200  24.600000
0.005200  24.700000
0.005200  24.700000
0.003700  24.800000
0.001500  24.800000
-0.000800  24.900000
-0.003000  25.000000
-0.003000  25.100000
0.000700  25.200000
0.000700  25.200000
0.000700  25.300000
0.003000  25.400000
-0.001500  25.500000
-0.001500  25.500000
-0.002300  25.600000
-0.003800  25.700000
-0.000800  25.800000
0.000700  25.800000
0.002200  25.900000
0.000000  26.000000
-0.001500  26.100000
-0.000800  26.100000
-0.001500  26.200000
-0.000800  26.300000
-0.002300  26.400000
-0.001500  26.500000
0.001500  26.500000
0.000000  26.600000
0.002200  26.700000
0.003000  26.800000
0.003700  26.800000
0.004500  26.900000
0.002200  27.000000
0.002200  27.000000
0.003000  27.100000
0.002200  27.200000
0.001500  27.300000
0.000000  27.400000
-0.003000  27.400000
-0.004600  27.500000
-0.004600  27.600000
-0.004600  27.700000
-0.005300  27.800000
-0.005300  27.800000
-0.002300  27.900000
0.000000  28.000000
0.003000  28.100000
0.002200  28.100000
0.003000  28.200000
0.009000  28.300000
0.008200  28.300000
0.006700  28.400000
0.005200  28.500000
0.003000  28.600000
0.005200  28.700000
0.006000  28.800000
0.005200  28.800000
0.008200  28.900000
0.009700  29.000000
0.008200  29.100000
0.006700  29.200000
0.005200  29.200000
0.003000  29.300000
0.004500  29.400000
0.002200  29.500000
-0.003800  29.600000
-0.005300  29.600000
-0.002300  29.700000
-0.002300  29.800000
-0.004600  29.900000
-0.003000  29.900000
-0.001500  30.000000
0.000000  30.100000
0.000700  30.100000
0.000700  30.200000
0.000000  30.300000
0.000000  30.400000
0.000700  30.500000
0.000000  30.600000
0.000700  30.600000
0.002200  30.700000
0.001500  30.800000
0.001500  30.800000
0.002200  30.900000
0.003000  31.000000
0.001500  31.000000
0.003000  31.100000
0.005200  31.200000
0.006700  31.300000
0.008200  31.400000
0.005200  31.400000
0.006000  31.500000
0.001500  31.600000
0.002200  31.600000
0.004500  31.700000
0.002200  31.800000
0.005200  31.900000
0.005200  31.900000
0.005200  32.000000
0.003000  32.100000
0.003700  32.200000
0.003000  32.300000
0.001500  32.400000
0.004500  32.400000
0.003700  32.500000
0.000700  32.600000
0.000000  32.700000
0.001500  32.700000
0.001500  32.800000
0.000700  32.900000
-0.002300  32.900000
-0.005300  33.000000
-0.008300  33.100000
-0.006000  33.200000
-0.006000  33.300000
-0.003800  33.300000
-0.003000  33.400000
-0.004600  33.500000
-0.003000  33.600000
-0.003000  33.700000
-0.001500  33.700000
-0.000800  33.800000
0.000700  33.900000
0.000700  34.000000
0.000700  34.100000
0.001500  34.100000
0.000700  34.200000
0.003000  34.300000
0.000000  34.400000
-0.004600  34.500000
-0.005300  34.600000
-0.004600  34.600000
-0.006000  34.700000
-0.003000  34.800000
0.002200  34.900000
0.003700  35.000000
0.003000  35.100000
0.000000  35.100000
-0.001500  35.200000
-0.001500  35.300000
-0.000800  35.400000
0.000700  35.500000
0.003000  35.500000
0.003700  35.600000
-0.001500  35.700000
-0.003000  35.800000
-0.004600  35.800000
-0.005300  35.900000
-0.003000  36.000000
-0.003800  36.100000
-0.004600  36.100000
-0.003800  36.200000
-0.000800  36.300000
-0.001500  36.400000
0.000000  36.500000
0.003700  36.500000
0.003700  36.600000
0.006000  36.700000
0.006700  36.800000
0.005200  36.900000
0.004500  37.000000
0.004500  37.100000
0.004500  37.100000
0.004500  37.200000
0.006000  37.300000
0.004500  37.400000
0.003700  37.500000
0.002200  37.600000
0.003700  37.600000
0.006700  37.700000
0.006700  37.800000
0.008200  37.900000
0.005200  38.000000
0.000000  38.100000
-0.004600  38.100000
-0.004600  38.200000
-0.004600  38.300000
-0.000800  38.400000
-0.001500  38.500000
-0.006000  38.500000
-0.003000  38.600000
0.000000  38.700000
0.002200  38.800000
0.003700  38.900000
0.000700  38.900000
0.002200  39.000000
0.004500  39.100000
0.003000  39.200000
0.004500  39.300000
0.002200  39.300000
0.001500  39.400000
0.000700  39.500000
0.000000  39.600000
-0.000800  39.700000
-0.001500  39.800000
-0.002300  39.800000
-0.003800  39.900000
-0.002300  40.000000
-0.003000  40.100000
-0.003000  40.200000
-0.001500  40.300000
0.001500  40.400000
0.003000  40.400000
0.003700  40.500000
0.008200  40.600000
0.008200  40.700000
0.007500  40.800000
0.006700  40.900000
0.004500  40.900000
0.000700  41.000000
-0.000800  41.100000
0.000700  41.200000
0.003000  41.300000
0.003000  41.400000
0.003000  41.400000
0.003000  41.500000
0.002200  41.600000
0.002200  41.700000
0.001500  41.800000
0.001500  41.800000
0.002200  41.900000
0.005200  42.000000
0.005200  42.100000
0.004500  42.200000
0.006700  42.200000
0.004500  42.300000
0.005200  42.400000
0.002200  42.500000
-0.004600  42.600000
-0.006000  42.600000
-0.009800  42.700000
-0.011300  42.800000
-0.006800  42.900000
-0.005300  42.900000
-0.004600  43.000000
-0.002300  43.100000
-0.001500  43.200000
-0.001500  43.200000
-0.003800  43.300000
-0.001500  43.400000
-0.003000  43.500000
-0.002300  43.600000
-0.000800  43.600000
-0.000800  43.700000
0.002200  43.800000
-0.001500  43.900000
-0.000800  44.000000
0.001500  44.000000
0.003700  44.100000
0.006000  44.200000
0.006000  44.200000
0.004500  44.300000
0.002200  44.400000
0.004500  44.500000
0.006700  44.600000
0.006700  44.600000
0.004500  44.700000
0.003000  44.800000
0.006000  44.900000
0.006700  45.000000
0.005200  45.100000
0.003700  45.200000
0.003700  45.200000
0.002200  45.300000
0.003000  45.400000
0.005200  45.500000
0.002200  45.600000
-0.000800  45.700000
-0.000800  45.700000
-0.002300  45.800000
-0.001500  45.900000
-0.000800  46.000000
-0.000800  46.100000
0.003000  46.100000
0.001500  46.200000
-0.000800  46.300000
-0.000800  46.300000
-0.000800  46.400000
0.000700  46.500000
0.000700  46.600000
0.000700  46.600000
0.001500  46.700000
0.006000  46.800000
0.004500  46.800000
0.006000  46.900000
0.003000  47.000000
-0.001500  47.100000
-0.003000  47.200000
-0.003000  47.200000
0.001500  47.300000
0.003700  47.300000
0.002200  47.400000
0.000700  47.500000
-0.000800  47.600000
0.000700  47.600000
0.000000  47.700000
-0.001500  47.800000
-0.000800  47.900000
0.000700  48.000000
0.000700  48.100000
0.000000  48.100000
0.000700  48.200000
-0.000800  48.300000
0.000000  48.300000
-0.001500  48.400000
-0.004600  48.500000
-0.004600  48.600000
-0.003800  48.600000
-0.001500  48.700000
0.002200  48.800000
0.004500  48.900000
0.004500  49.000000
0.004500  49.000000
0.004500  49.100000
0.002200  49.200000
0.000700  49.300000
-0.003800  49.400000
-0.004600  49.500000
-0.005300  49.500000
-0.004600  49.600000
-0.005300  49.700000
-0.006800  49.800000
-0.006800  49.900000
-0.006000  49.900000
-0.001500  50.000000
0.000700  50.100000
0.003700  50.200000
0.003700  50.300000
0.003000  50.400000
0.004500  50.400000
0.005200  50.500000
0.006700  50.600000
0.006700  50.700000
0.005200  50.800000
0.004500  50.800000
0.003000  50.900000
0.000700  51.000000
0.001500  51.100000
0.001500  51.200000
-0.001500  51.300000
-0.001500  51.300000
-0.001500  51.400000
-0.000800  51.500000
0.001500  51.600000
0.000700  51.700000
0.000700  51.700000
0.001500  51.800000
0.003700  51.900000
0.005200  52.000000
0.006700  52.100000
0.005200  52.200000
0.003700  52.200000
0.001500  52.300000
0.002200  52.400000
0.006700  52.500000
0.005200  52.600000
0.000700  52.600000
-0.004600  52.700000
-0.006000  52.800000
-0.002300  52.900000
-0.002300  53.000000
-0.003000  53.100000
0.001500  53.100000
0.000000  53.200000
-0.000800  53.300000
0.003000  53.400000
0.002200  53.500000
0.000700  53.600000
0.000700  53.600000
0.000700  53.700000
-0.004600  53.800000
-0.004600  53.900000
-0.003000  54.000000
-0.001500  54.100000
0.000700  54.200000
0.000700  54.300000
0.000700  54.400000
0.000700  54.400000
0.000700  54.500000
-0.000800  54.600000
-0.004600  54.700000
-0.003000  54.800000
-0.003800  54.900000
-0.005300  54.900000
-0.003000  55.000000
-0.003000  55.100000
0.000700  55.200000
0.003700  55.300000
0.001500  55.300000
0.001500  55.400000
0.001500  55.500000
0.000700  55.600000
0.000000  55.700000
0.000000  55.800000
0.001500  55.900000
0.004500  56.000000
0.004500  56.100000
0.006000  56.100000
0.008200  56.200000
0.009700  56.300000
0.012000  56.400000
0.010500  56.500000
0.008200  56.600000
0.008200  56.700000
0.010500  56.700000
0.010500  56.800000
0.008200  56.900000
0.006700  57.000000
0.006000  57.100000
0.003000  57.100000
0.001500  57.200000
-0.001500  57.300000
-0.002300  57.400000
0.000000  57.500000
0.000700  57.600000
0.000700  57.700000
0.001500  57.800000
-0.000800  57.900000
-0.002300  58.000000
-0.000800  58.000000
-0.000800  58.100000
-0.003800  58.200000
-0.009100  58.300000
-0.010500  58.400000
-0.007500  58.500000
-0.004600  58.500000
-0.004600  58.600000
-0.004600  58.700000
-0.005300  58.800000
-0.004600  58.900000
-0.004600  59.000000
-0.002300  59.100000
0.000700  59.200000
0.000000  59.300000
-0.001500  59.400000
-0.000800  59.400000
-0.000800  59.500000
-0.002300  59.600000
-0.003000  59.700000
-0.002300  59.800000
-0.001500  59.900000
-0.001500  60.000000
0.000000  60.000000
0.003700  60.100000
0.006000  60.200000
0.007500  60.300000
0.006000  60.400000
0.004500  60.500000
0.002200  60.600000
-0.000800  60.700000
-0.001500  60.700000
0.000700  60.800000
0.004500  60.900000
0.005200  61.000000
0.004500  61.100000
-0.000800  61.200000
-0.002300  61.300000
-0.003000  61.300000
-0.007500  61.400000
-0.008300  61.500000
-0.004600  61.600000
-0.003000  61.700000
0.002200  61.800000
0.003700  61.900000
0.003000  62.000000
0.001500  62.100000
0.002200  62.100000
0.004500  62.200000
0.003700  62.300000
0.005200  62.400000
0.007500  62.500000
0.006000  62.500000
0.003000  62.600000
0.000700  62.700000
0.002200  62.800000
0.004500  62.900000
0.006700  63.000000
0.009000  63.000000
0.007500  63.100000
0.004500  63.200000
0.003700  63.300000
0.000000  63.400000
-0.004600  63.400000
-0.000800  63.500000
0.003700  63.600000
0.005200  63.700000
0.003000  63.700000
0.001500  63.800000
0.003000  63.900000
0.003700  64.000000
0.005200  64.000000
0.003700  64.100000
0.005200  64.200000
0.006700  64.300000
0.006700  64.300000
0.004500  64.400000
0.000000  64.500000
-0.001500  64.600000
-0.002300  64.700000
-0.003000  64.800000
0.000700  64.800000
0.003000  64.900000
0.006700  65.000000
0.009000  65.100000
0.004500  65.200000
0.001500  65.200000
-0.000800  65.300000
-0.009100  65.400000
-0.009800  65.500000
-0.005300  65.600000
-0.002300  65.600000
-0.001500  65.700000
-0.002300  65.800000
0.000700  65.800000
0.001500  65.900000
-0.002300  66.000000
-0.003800  66.100000
-0.004600  66.100000
-0.000800  66.200000
0.000700  66.300000
0.001500  66.400000
-0.001500  66.500000
-0.009800  66.500000
-0.013500  66.600000
-0.009100  66.600000
0.000700  66.700000
0.004500  66.800000
0.008200  66.900000
0.009700  67.000000
0.006700  67.000000
0.006700  67.100000
0.006700  67.200000
0.006700  67.300000
0.004500  67.300000
0.003000  67.400000
0.006700  67.500000
0.008200  67.500000
0.003000  67.600000
-0.000800  67.700000
0.000700  67.800000
0.000700  67.800000
-0.001500  67.900000
-0.002300  68.000000
-0.003800  68.000000
-0.003000  68.100000
-0.001500  68.200000
-0.000800  68.300000
-0.000800  68.300000
0.001500  68.400000
0.003000  68.500000
0.001500  68.500000
-0.000800  68.600000
0.000700  68.700000
0.000700  68.800000
-0.000800  68.800000
-0.000800  68.900000
-0.001500  69.000000
-0.000800  69.100000
0.000700  69.200000
0.003000  69.300000
0.004500  69.300000
0.004500  69.400000
-0.003000  69.500000
-0.012800  69.600000
-0.005300  69.700000
0.003000  69.700000
0.008200  69.800000
0.009700  69.900000
0.006700  70.000000
0.001500  70.100000
-0.003800  70.100000
-0.000800  70.200000
0.001500  70.300000
0.000000  70.300000
-0.000800  70.400000
-0.004600  70.500000
-0.004600  70.600000
-0.003000  70.600000
-0.002300  70.700000
-0.001500  70.800000
0.000700  70.900000
0.001500  71.000000
0.001500  71.100000
0.001500  71.100000
0.000700  71.200000
-0.001500  71.300000
-0.003000  71.400000
-0.000800  71.500000
0.003700  71.500000
0.004500  71.600000
0.002200  71.700000
0.003000  71.800000
0.001500  71.900000
0.000700  71.900000
0.004500  72.000000
0.009000  72.100000
0.005200  72.200000
0.004500  72.200000
0.006000  72.300000
0.003700  72.400000
0.000700  72.500000
-0.004600  72.600000
-0.004600  72.600000
0.000700  72.700000
0.001500  72.800000
0.004500  72.900000
0.005200  72.900000
0.005200  73.000000
0.002200  73.100000
-0.000800  73.200000
0.000700  73.300000
-0.000800  73.300000
-0.003000  73.400000
-0.003000  73.500000
-0.001500  73.600000
0.001500  73.700000
0.002200  73.800000
-0.003800  73.800000
-0.007500  73.900000
-0.006800  74.000000
-0.003000  74.100000
0.003700  74.200000
0.007500  74.300000
0.009000  74.400000
0.007500  74.500000
0.005200  74.600000
0.004500  74.700000
0.001500  74.700000
0.003700  74.800000
0.005200  74.900000
0.003700  75.000000
-0.002300  75.100000
-0.006000  75.100000
-0.007500  75.200000
-0.006000  75.300000
-0.002300  75.400000
-0.002300  75.600000
0.000000  75.600000
0.003000  75.700000
-0.000800  75.800000
-0.005300  75.900000
-0.003000  76.000000
0.000000  76.100000
0.000000  76.200000
0.003000  76.300000
0.005200  76.400000
0.004500  76.500000
0.005200  76.600000
0.006000  76.700000
0.005200  76.800000
0.005200  76.900000
0.000000  76.900000
-0.005300  77.000000
-0.005300  77.100000
-0.002300  77.300000
-0.003800  77.300000
-0.008300  77.400000
-0.008300  77.500000
-0.004600  77.600000
-0.002300  77.800000
0.000000  77.800000
0.000700  77.900000
0.002200  78.000000
0.005200  78.100000
0.009000  78.300000
0.010500  78.300000
0.007500  78.400000
0.005200  78.500000
0.007500  78.600000
0.009000  78.700000
0.012700  78.800000
0.008200  78.900000
0.003000  79.000000
0.003000  79.100000
0.003000  79.200000
0.003000  79.300000
0.006700  79.400000
0.004500  79.500000
0.000700  79.600000
-0.000800  79.700000
-0.002300  79.800000
0.001500  79.900000
0.002200  80.000000
-0.000800  80.100000
0.000700  80.200000
-0.003800  80.300000
-0.003800  80.400000
0.001500  80.500000
0.001500  80.600000
0.005200  80.700000
0.004500  80.800000
0.000700  80.900000
0.000700  81.000000
-0.001500  81.000000
0.003000  81.200000
0.004500  81.300000
0.001500  81.400000
-0.005300  81.400000
-0.010500  81.600000
-0.008300  81.700000
-0.004600  81.800000
-0.000800  81.900000
-0.003000  82.000000
-0.009100  82.100000
-0.011300  82.200000
-0.012000  82.300000
-0.012000  82.400000
-0.011300  82.500000
-0.005300  82.600000
0.001500  82.700000
0.006000  82.800000
0.008200  82.900000
0.009000  83.000000
0.008200  83.100000
0.008200  83.200000
0.005200  83.300000
-0.000800  83.400000
-0.003000  83.500000
-0.008300  83.600000
-0.007500  83.700000
-0.001500  83.700000
0.001500  83.900000
0.006700  84.000000
0.009000  84.100000
0.012700  84.100000
0.012700  84.200000
0.009000  84.300000
0.001500  84.400000
-0.003000  84.600000
-0.003000  84.600000
-0.003000  84.700000
-0.000800  84.800000
0.003000  84.900000
0.005200  85.000000
0.006000  85.100000
0.004500  85.200000
0.002200  85.300000
0.000700  85.400000
0.002200  85.500000
0.006700  85.600000
0.002200  85.700000
-0.001500  85.800000
-0.003000  85.900000
-0.001500  85.900000
-0.000800  86.000000
0.000700  86.100000
0.003000  86.300000
0.000700  86.300000
0.001500  86.400000
0.004500  86.500000
0.009700  86.600000
0.012700  86.700000
0.010500  86.800000
0.008200  86.900000
0.005200  86.900000
0.005200  87.000000
0.004500  87.100000
-0.000800  87.200000
-0.002300  87.300000
-0.003000  87.300000
-0.003000  87.400000
-0.003000  87.500000
-0.004600  87.600000
-0.002300  87.700000
-0.001500  87.700000
-0.004600  87.800000
-0.009800  87.900000
-0.013500  88.000000
-0.008300  88.100000
-0.003000  88.200000
-0.003800  88.200000
-0.000800  88.300000
-0.003000  88.400000
-0.008300  88.500000
-0.012000  88.600000
-0.008300  88.600000
-0.003000  88.700000
-0.000800  88.800000
0.004500  88.900000
0.007500  88.900000
0.005200  89.000000
0.003000  89.100000
0.004500  89.100000
0.004500  89.200000
0.005200  89.300000
0.006700  89.400000
0.006700  89.500000
0.007500  89.500000
0.005200  89.600000
0.009700  89.700000
0.012700  89.700000
0.008200  89.800000
0.003700  89.900000
0.002200  90.000000
0.002200  90.000000
0.001500  90.100000
0.000000  90.200000
0.000700  90.200000
-0.003800  90.300000
-0.009100  90.400000
-0.007500  90.400000
-0.005300  90.500000
-0.004600  90.600000
-0.002300  90.700000
0.000700  90.700000
-0.000800  90.800000
-0.004600  90.800000
-0.003000  90.900000
0.005200  91.000000
0.011200  91.100000
0.009700  91.100000
0.006000  91.200000
0.009000  91.300000
0.015700  91.300000
0.015000  91.400000
0.015000  91.400000
0.014200  91.500000
0.008200  91.600000
0.001500  91.600000
-0.002300  91.700000
-0.003800  91.800000
-0.010500  91.800000
-0.010500  91.900000
-0.008300  91.900000
-0.006800  92.000000
-0.003800  92.100000
-0.003800  92.100000
-0.002300  92.200000
-0.002300  92.200000
-0.003000  92.300000
-0.001500  92.400000
-0.003000  92.400000
-0.002300  92.500000
-0.000800  92.500000
-0.002300  92.600000
-0.005300  92.600000
-0.005300  92.700000
-0.004600  92.700000
-0.005300  92.800000
-0.003000  92.800000
-0.000800  92.900000
-0.003800  92.900000
-0.006000  93.000000
-0.008300  93.000000
-0.006800  93.100000
-0.001500  93.100000
-0.000800  93.200000
-0.001500  93.200000
-0.000800  93.300000
-0.000800  93.300000
-0.000800  93.400000
0.000700  93.400000
0.000700  93.500000
0.003700  93.500000
0.006000  93.600000
0.003000  93.600000
0.004500  93.600000
0.006000  93.600000
0.006700  93.700000
0.003000  93.700000
0.004500  93.800000
0.008200  93.800000
0.003000  93.900000
0.002200  93.900000
0.001500  94.000000
0.008200  94.000000
0.009000  94.000000
0.009000  94.000000
0.009700  94.100000
0.003000  94.100000
-0.001500  94.200000
-0.001500  94.200000
0.001500  94.300000
0.001500  94.300000
-0.000800  94.300000
-0.001500  94.400000
-0.005300  94.400000
0.000700  94.500000
0.006700  94.500000
0.004500  94.500000
0.000000  94.500000
-0.005300  94.600000
-0.003000  94.600000
0.000700  94.700000
0.000700  94.700000
0.003000  94.700000
0.001500  94.800000
-0.000800  94.800000
0.000700  94.900000
-0.003000  94.900000
-0.004600  94.900000
0.000700  94.900000
0.003700  95.000000
0.003000  95.000000
0.000000  95.000000
0.000000  95.100000
0.000700  95.100000
0.000700  95.100000
-0.001500  95.200000
-0.000800  95.200000
0.002200  95.200000
0.002200  95.300000
0.001500  95.300000
0.001500  95.300000
0.003000  95.300000
0.002200  95.300000
-0.000800  95.400000
-0.003000  95.400000
0.006700  95.400000
0.011200  95.500000
0.006000  95.500000
0.006000  95.500000
0.003700  95.500000
-0.004600  95.600000
-0.003800  95.600000
-0.004600  95.600000
-0.007500  95.700000
-0.003800  95.700000
-0.005300  95.700000
-0.005300  95.700000
-0.000800  95.800000
0.003000  95.800000
0.010500  95.800000
0.008200  95.800000
0.009000  95.800000
0.008200  95.800000
0.002200  95.900000
0.003000  95.900000
0.000700  95.900000
0.000700  95.900000
0.002200  96.000000
0.001500  96.000000
0.000000  96.000000
0.003700  96.000000
0.014200  96.000000
0.018000  96.100000
0.014200  96.100000
0.005200  96.100000
0.001500  96.100000
0.005200  96.200000
0.000700  96.200000
-0.004600  96.200000
-0.006800  96.200000
-0.009100  96.200000
-0.009100  96.300000
-0.005300  96.300000
0.000700  96.300000
0.002200  96.300000
0.003000  96.300000
0.003000  96.300000
0.003000  96.400000
0.001500  96.400000
0.000700  96.400000
0.001500  96.400000
0.001500  96.400000
0.001500  96.400000
0.000000  96.400000
-0.000800  96.400000
-0.003000  96.500000
-0.005300  96.500000
-0.005300  96.500000
-0.004600  96.500000
-0.004600  96.500000
-0.003000  96.500000
-0.003000  96.500000
-0.006800  96.600000
-0.009800  96.600000
-0.006800  96.600000
-0.001500  96.600000
-0.003800  96.600000
-0.003000  96.600000
0.000000  96.600000
0.007500  96.600000
0.008200  96.700000
0.008200  96.700000
0.006700  96.700000
0.001500  96.700000
0.000000  96.700000
-0.003800  96.700000
-0.003800  96.700000
0.002200  96.700000
0.005200  96.700000
0.007500  96.700000
0.009000  96.800000
0.006700  96.800000
0.003700  96.800000
0.003700  96.800000
0.003700  96.800000
0.003000  96.800000
0.005200  96.800000
0.004500  96.900000
0.003000  96.900000
0.006700  96.900000
0.009000  96.900000
0.006700  96.900000
0.000700  96.900000
-0.002300  96.900000
0.000700  96.900000
0.003000  96.900000
0.004500  97.000000
0.001500  97.000000
-0.006800  97.000000
-0.011300  97.000000
-0.009800  97.000000
-0.007500  97.000000
-0.004600  97.000000
-0.002300  97.000000
0.002200  97.000000
0.001500  97.000000
-0.002300  97.100000
0.000000  97.100000
0.001500  97.100000
-0.001500  97.100000
-0.003000  97.100000
-0.004600  97.100000
-0.006000  97.100000
-0.004600  97.100000
-0.006800  97.100000
-0.008300  97.100000
-0.011300  97.100000
-0.008300  97.100000
0.002200  97.100000
0.006000  97.100000
0.010500  97.100000
0.010500  97.100000
0.004500  97.100000
0.003700  97.200000
0.000700  97.200000
0.000000  97.200000
-0.001500  97.200000
-0.005300  97.200000
-0.006800  97.200000
-0.006800  97.200000
-0.004600  97.200000
0.000000  97.200000
0.003000  97.200000
0.009000  97.200000
0.013500  97.200000
0.006700  97.200000
0.003000  97.200000
0.003700  97.200000
-0.000800  97.200000
-0.001500  97.200000
0.000000  97.200000
0.006700  97.200000
0.012000  97.200000
0.010500  97.200000
0.008200  97.200000
0.008200  97.200000
0.009700  97.200000
0.004500  97.200000
0.000000  97.200000
0.000700  97.200000
0.004500  97.200000
0.006000  97.200000
0.001500  97.200000
-0.005300  97.200000
-0.013500  97.200000
-0.009100  97.200000
-0.003000  97.200000
0.001500  97.200000
0.008200  97.200000
0.013500  97.200000
0.014200  97.200000
0.012000  97.200000
0.012700  97.200000
0.008200  97.200000
-0.006800  97.200000
-0.025600  97.200000
-0.023300  97.200000
-0.008300  97.200000
0.003000  97.200000
0.011200  97.200000
0.011200  97.200000
0.008200  97.200000
0.003700  97.200000
0.000700  97.200000
-0.000800  97.200000
0.000000  97.200000
0.000700  97.200000
0.005200  97.200000
0.009000  97.200000
0.012700  97.200000
0.012700  97.200000
0.009000  97.200000
0.006000  97.200000
-0.000800  97.200000
-0.005300  97.200000
-0.005300  97.200000
-0.003800  97.200000
0.000000  97.200000
-0.003000  97.200000
-0.003000  97.200000
0.001500  97.200000
0.004500  97.200000
0.001500  97.200000
0.000700  97.200000
-0.001500  97.200000
-0.006800  97.200000
-0.007500  97.200000
-0.006800  97.200000
-0.001500  97.200000
0.001500  97.200000
0.003000  97.200000
0.005200  97.200000
0.001500  97.200000
-0.000800  97.200000
-0.002300  97.200000
-0.007500  97.200000
-0.012800  97.200000
-0.012000  97.200000
-0.010500  97.200000
-0.009100  97.200000
-0.006800  97.200000
-0.008300  97.200000
-0.008300  97.200000
-0.006800  97.200000
-0.009100  97.200000
-0.009100  97.200000
-0.001500  97.100000
0.002200  97.100000
0.003000  97.100000
0.008200  97.100000
0.009700  97.100000
0.008200  97.100000
0.000700  97.100000
-0.002300  97.100000
0.002200  97.100000
0.003000  97.100000
0.012000  97.000000
0.016500  97.000000
0.015000  97.000000
0.011200  97.000000
0.008200  97.000000
0.008200  97.000000
0.009000  97.000000
0.006000  97.000000
0.003000  97.000000
0.004500  97.000000
0.006000  97.000000
0.005200  97.000000
0.003000  97.000000
-0.000800  97.000000
-0.002300  97.000000
-0.003000  97.000000
-0.006000  97.000000
-0.005300  97.000000
-0.004600  97.000000
-0.004600  97.000000
0.000700  97.000000
0.004500  97.000000
0.003000  97.000000
0.001500  97.000000
0.000000  97.000000
-0.002300  97.000000
-0.003800  97.000000
-0.003800  97.000000
0.001500  97.000000
0.005200  97.000000
0.004500  97.000000
0.005200  97.000000
0.004500  97.000000
0.001500  97.000000
-0.002300  97.000000
-0.003000  97.000000
-0.002300  97.000000
0.004500  97.000000
0.007500  97.000000
0.006000  97.000000
0.007500  97.000000
0.004500  97.000000
0.001500  97.000000
-0.004600  97.000000
-0.006800  97.000000
-0.003000  97.000000
-0.001500  97.000000
0.001500  97.000000
0.005200  97.000000
0.006700  97.000000
0.007500  97.000000
0.008200  97.000000
0.010500  97.000000
0.006700  97.000000
-0.008300  97.000000
-0.021800  97.000000
-0.020300  97.000000
-0.010500  97.000000
0.001500  97.000000
0.004500  97.000000
0.002200  97.000000
0.004500  97.000000
0.003000  97.000000
0.006700  97.000000
0.009000  97.000000
0.010500  97.000000
0.012000  97.000000
0.009700  97.000000
0.006000  97.000000
0.002200  97.000000
-0.003800  97.000000
-0.003800  97.000000
0.000000  97.000000
-0.000800  97.000000
-0.003800  97.000000
-0.003000  97.000000
0.000000  97.000000
-0.001500  97.000000
0.000700  97.000000
0.001500  97.000000
-0.003000  97.000000
-0.000800  97.000000
0.000700  97.000000
0.000700  97.000000
0.001500  97.000000
0.000700  97.000000
0.001500  97.000000
0.000700  97.000000
-0.001500  97.000000
0.001500  97.000000
-0.000800  97.000000
-0.003000  97.000000
0.001500  97.000000
0.003000  97.000000
0.006700  97.000000
0.006700  97.000000
0.005200  97.000000
0.004500  97.000000
0.001500  97.000000
0.002200  97.000000
0.001500  97.000000
0.001500  97.000000
-0.003000  97.000000
-0.005300  97.000000
-0.002300  97.000000
-0.001500  97.000000
0.003000  97.000000
0.004500  97.100000
0.003000  97.100000
0.003700  97.100000
0.006700  97.100000
0.006700  97.100000
0.001500  97.100000
-0.000800  97.100000
-0.003000  97.100000
-0.001500  97.100000
-0.001500  97.100000
-0.001500  97.100000
0.000700  97.100000
-0.000800  97.100000
-0.005300  97.100000
-0.008300  97.100000
-0.007500  97.100000
-0.001500  97.100000
0.001500  97.100000
0.000000  97.100000
0.000700  97.100000
0.003700  97.200000
0.004500  97.200000
0.005200  97.200000
0.005200  97.200000
0.000700  97.200000
0.000700  97.200000
0.006700  97.200000
0.006700  97.200000
0.004500  97.200000
0.005200  97.200000
0.003700  97.200000
0.001500  97.200000
0.002200  97.200000
0.003000  97.200000
0.003000  97.200000
0.004500  97.200000
0.001500  97.200000
0.000000  97.200000
-0.000800  97.200000
-0.000800  97.200000
0.000700  97.200000
0.003000  97.200000
0.007500  97.200000
0.006700  97.200000
0.004500  97.200000
-0.000800  97.200000
-0.002300  97.200000
-0.001500  97.200000
-0.003000  97.200000
-0.003000  97.200000
-0.005300  97.200000
-0.007500  97.200000
-0.005300  97.200000
-0.007500  97.200000
-0.004600  97.200000
-0.003000  97.200000
-0.008300  97.200000
-0.012800  97.200000
-0.010500  97.200000
-0.005300  97.200000
-0.008300  97.200000
-0.018100  97.200000
-0.014300  97.200000
-0.004600  97.200000
0.003000  97.200000
0.008200  97.300000
0.005200  97.300000
0.009000  97.300000
0.010500  97.300000
0.012000  97.300000
0.010500  97.300000
0.004500  97.300000
0.002200  97.300000
-0.000800  97.300000
-0.003800  97.300000
-0.004600  97.300000
-0.000800  97.300000
-0.000800  97.300000
0.000700  97.300000
0.004500  97.300000
0.005200  97.300000
0.009700  97.300000
0.012000  97.300000
0.011200  97.300000
0.012000  97.300000
0.012000  97.300000
0.007500  97.300000
0.008200  97.300000
0.009000  97.300000
0.005200  97.300000
0.008200  97.300000
0.004500  97.300000
0.001500  97.300000
-0.000800  97.300000
-0.001500  97.300000
-0.003000  97.300000
-0.006800  97.300000
-0.003000  97.300000
-0.001500  97.300000
0.000700  97.300000
0.002200  97.300000
0.004500  97.300000
0.009000  97.300000
0.008200  97.300000
0.006000  97.300000
0.002200  97.300000
0.000700  97.300000
0.000700  97.300000
0.000700  97.300000
0.000700  97.300000
0.001500  97.300000
-0.000800  97.300000
-0.000800  97.300000
0.003000  97.300000
0.001500  97.300000
-0.001500  97.300000
-0.003800  97.300000
-0.011300  97.300000
-0.016500  97.300000
-0.016500  97.300000
-0.009800  97.300000
-0.000800  97.300000
0.006700  97.300000
0.009000  97.300000
0.006700  97.300000
0.005200  97.300000
0.008200  97.300000
0.005200  97.300000
0.005200  97.300000
0.006700  97.300000
0.001500  97.300000
0.000700  97.300000
0.000700  97.300000
-0.001500  97.300000
-0.000800  97.300000
-0.001500  97.200000
-0.002300  97.200000
-0.003800  97.200000
-0.005300  97.200000
-0.005300  97.200000
-0.005300  97.200000
-0.000800  97.200000
0.001500  97.200000
-0.001500  97.200000
0.002200  97.200000
0.008200  97.200000
0.010500  97.200000
0.012700  97.200000
0.006700  97.200000
0.000700  97.200000
-0.003000  97.200000
-0.004600  97.200000
-0.004600  97.200000
-0.001500  97.200000
-0.003800  97.200000
-0.004600  97.200000
-0.000800  97.200000
0.004500  97.200000
0.007500  97.200000
0.009000  97.200000
0.008200  97.200000
0.009000  97.200000
0.008200  97.200000
0.006700  97.200000
0.006700  97.200000
0.006700  97.200000
0.006700  97.200000
0.003000  97.200000
-0.000800  97.200000
-0.005300  97.200000
-0.006000  97.200000
-0.006000  97.200000
-0.006000  97.200000
-0.006800  97.200000
-0.006000  97.200000
-0.006000  97.200000
-0.005300  97.200000
-0.000800  97.200000
-0.000800  97.200000
0.000700  97.200000
0.001500  97.200000
0.000700  97.200000
0.001500  97.200000
0.004500  97.200000
0.002200  97.200000
-0.001500  97.100000
0.001500  97.100000
0.002200  97.100000
0.000700  97.100000
0.000000  97.100000
-0.000800  97.100000
-0.005300  97.100000
-0.006800  97.100000
-0.004600  97.100000
-0.005300  97.100000
-0.005300  97.000000
-0.003800  97.000000
0.001500  97.000000
0.001500  97.000000
0.000700  97.000000
0.000000  97.000000
-0.005300  97.000000
-0.006000  97.000000
-0.000800  97.000000
0.003700  97.000000
0.005200  97.000000
0.008200  97.000000
0.006700  97.000000
0.004500  97.000000
0.006000  97.000000
0.003700  97.000000
0.001500  97.000000
-0.002300  97.000000
-0.005300  97.000000
-0.003000  97.000000
-0.003000  96.900000
-0.002300  96.900000
-0.002300  96.900000
-0.000800  96.900000
0.004500  96.900000
0.012000  96.900000
0.015700  96.900000
0.016500  96.900000
0.018700  96.900000
0.019500  96.900000
0.010500  96.900000
0.002200  96.900000
-0.000800  96.900000
-0.004600  96.900000
-0.008300  96.900000
-0.006800  96.900000
-0.001500  96.900000
0.002200  96.900000
0.004500  96.900000
0.006700  96.900000
0.009000  96.900000
0.007500  96.900000
0.006700  96.900000
0.008200  96.900000
0.005200  96.900000
-0.007500  96.900000
-0.015800  96.900000
-0.012800  96.900000
-0.009800  96.900000
-0.006000  96.900000
-0.005300  96.800000
-0.005300  96.800000
-0.006800  96.800000
-0.004600  96.800000
-0.004600  96.800000
-0.009100  96.800000
-0.006800  96.800000
0.000700  96.800000
-0.000800  96.800000
-0.005300  96.800000
-0.005300  96.700000
-0.005300  96.700000
-0.003800  96.700000
-0.000800  96.700000
0.002200  96.700000
0.008200  96.700000
0.009000  96.700000
0.010500  96.700000
0.014200  96.700000
0.012000  96.700000
0.006000  96.700000
0.005200  96.700000
0.006000  96.700000
0.006000  96.700000
0.005200  96.700000
0.002200  96.700000
0.003000  96.700000
0.000700  96.700000
0.000000  96.700000
0.003000  96.700000
0.003700  96.700000
0.004500  96.700000
0.004500  96.700000
0.006700  96.700000
0.003700  96.700000
-0.004600  96.700000
-0.005300  96.700000
0.000700  96.700000
0.005200  96.700000
0.002200  96.700000
-0.004600  96.700000
-0.006800  96.700000
-0.009800  96.700000
-0.009100  96.700000
-0.003800  96.700000
-0.001500  96.700000
0.001500  96.700000
0.002200  96.700000
0.001500  96.700000
0.003000  96.700000
0.001500  96.700000
0.004500  96.700000
0.004500  96.700000
0.003700  96.700000
0.006000  96.700000
0.003000  96.700000
0.003000  96.700000
0.004500  96.700000
0.001500  96.700000
0.001500  96.700000
0.004500  96.600000
0.006700  96.600000
0.005200  96.600000
0.001500  96.600000
0.000700  96.600000
-0.000800  96.600000
0.000000  96.600000
-0.002300  96.600000
-0.001500  96.600000
0.000700  96.600000
0.001500  96.500000
0.001500  96.500000
-0.002300  96.500000
-0.004600  96.500000
-0.000800  96.500000
-0.001500  96.500000
-0.003000  96.500000
-0.006000  96.500000
-0.009100  96.500000
-0.003000  96.500000
-0.001500  96.500000
-0.000800  96.500000
0.001500  96.500000
0.003700  96.500000
0.003000  96.500000
0.000000  96.500000
-0.001500  96.500000
0.000700  96.500000
0.003000  96.500000
0.001500  96.500000
0.003000  96.400000
0.002200  96.400000
0.002200  96.400000
0.004500  96.400000
0.005200  96.400000
0.010500  96.400000
0.012000  96.400000
0.006700  96.400000
0.003000  96.400000
0.001500  96.400000
0.002200  96.400000
0.000700  96.400000
-0.001500  96.400000
-0.003000  96.400000
-0.003800  96.400000
-0.006800  96.400000
-0.010500  96.400000
-0.009800  96.400000
-0.003800  96.400000
0.000000  96.400000
0.000000  96.300000
-0.000800  96.300000
0.001500  96.300000
0.002200  96.300000
0.000700  96.300000
-0.002300  96.300000
-0.004600  96.300000
-0.001500  96.300000
-0.001500  96.300000
0.003000  96.300000
0.009000  96.300000
0.005200  96.300000
0.000700  96.300000
0.000700  96.300000
0.006000  96.300000
0.008200  96.300000
0.010500  96.300000
0.009000  96.300000
0.009000  96.300000
0.010500  96.300000
0.008200  96.300000
0.006700  96.300000
0.001500  96.300000
-0.001500  96.300000
-0.002300  96.300000
-0.002300  96.300000
-0.003000  96.300000
-0.004600  96.300000
-0.004600  96.300000
-0.003000  96.300000
0.001500  96.200000
0.003000  96.200000
0.003000  96.200000
0.000700  96.200000
-0.000800  96.200000
-0.001500  96.200000
-0.003000  96.200000
-0.003000  96.200000
-0.005300  96.200000
-0.004600  96.200000
0.000700  96.100000
0.002200  96.100000
0.001500  96.100000
-0.002300  96.100000
-0.003000  96.100000
0.000000  96.100000
0.000700  96.100000
0.000700  96.100000
0.002200  96.100000
0.004500  96.100000
0.004500  96.100000
0.002200  96.100000
0.000700  96.100000
-0.001500  96.100000
-0.002300  96.100000
-0.000800  96.100000
-0.002300  96.100000
-0.003000  96.000000
-0.001500  96.000000
0.000700  96.000000
-0.000800  96.000000
-0.001500  96.000000
0.001500  96.000000
0.004500  96.000000
0.005200  96.000000
0.003000  96.000000
-0.000800  96.000000
-0.001500  96.000000
-0.001500  95.900000
-0.002300  95.900000
-0.004600  95.900000
-0.002300  95.900000
-0.002300  95.900000
-0.004600  95.900000
-0.000800  95.900000
0.003000  95.900000
0.010500  95.900000
0.007500  95.900000
0.004500  95.800000
0.006000  95.800000
0.000700  95.800000
-0.001500  95.800000
-0.001500  95.800000
0.000000  95.800000
0.003000  95.800000
0.002200  95.800000
0.003000  95.800000
0.004500  95.800000
0.005200  95.800000
0.006000  95.800000
0.006700  95.800000
0.008200  95.800000
0.010500  95.800000
0.009000  95.700000
0.009000  95.700000
0.006000  95.700000
0.003000  95.700000
0.004500  95.700000
0.005200  95.700000
0.004500  95.700000
0.001500  95.600000
-0.001500  95.600000
-0.006800  95.600000
-0.008300  95.600000
-0.010500  95.600000
-0.012000  95.600000
-0.012800  95.600000
-0.012000  95.600000
-0.010500  95.600000
-0.010500  95.600000
-0.008300  95.600000
-0.008300  95.600000
-0.006000  95.600000
-0.003000  95.500000
-0.001500  95.500000
-0.001500  95.500000
-0.001500  95.500000
0.000700  95.500000
0.002200  95.500000
0.001500  95.500000
0.002200  95.400000
0.004500  95.400000
0.004500  95.400000
0.004500  95.400000
0.004500  95.400000
0.005200  95.400000
0.004500  95.400000
0.004500  95.400000
0.008200  95.400000
0.006700  95.400000
0.006700  95.300000
0.006000  95.300000
0.005200  95.300000
0.005200  95.300000
0.006700  95.300000
0.009000  95.300000
0.006700  95.300000
0.006700  95.300000
0.005200  95.300000
0.004500  95.300000
0.003700  95.200000
0.000700  95.200000
-0.000800  95.200000
-0.002300  95.200000
-0.002300  95.200000
-0.002300  95.200000
-0.003000  95.100000
-0.003000  95.100000
-0.003000  95.100000
-0.002300  95.100000
-0.000800  95.000000
0.000700  95.000000
0.003000  95.000000
0.005200  95.000000
0.002200  95.000000
-0.000800  94.900000
-0.004600  94.900000
-0.002300  94.900000
0.001500  94.900000
0.003000  94.900000
0.004500  94.800000
0.001500  94.800000
0.001500  94.800000
0.002200  94.800000
0.001500  94.800000
0.005200  94.700000
0.006000  94.700000
0.001500  94.700000
0.003000  94.700000
0.005200  94.700000
0.006700  94.600000
0.006000  94.600000
0.003700  94.600000
0.000000  94.500000
-0.003800  94.500000
-0.009100  94.500000
-0.012000  94.500000
-0.009800  94.500000
-0.006800  94.500000
-0.003000  94.500000
-0.000800  94.400000
0.001500  94.400000
0.003700  94.400000
0.003000  94.300000
0.003000  94.300000
0.003700  94.300000
0.005200  94.200000
0.004500  94.200000
-0.001500  94.200000
-0.005300  94.100000
-0.006800  94.100000
-0.008300  94.100000
-0.007500  94.000000
-0.005300  94.000000
-0.004600  94.000000
-0.001500  94.000000
0.003000  94.000000
0.004500  93.900000
0.004500  93.900000
0.004500  93.900000
0.001500  93.800000
0.003000  93.800000
0.008200  93.800000
0.009000  93.700000
0.010500  93.700000
0.009000  93.600000
0.006700  93.600000
0.006700  93.600000
0.004500  93.600000
0.004500  93.600000
0.005200  93.500000
0.006700  93.500000
0.004500  93.500000
-0.000800  93.400000
0.000700  93.400000
-0.002300  93.300000
-0.000800  93.300000
0.001500  93.300000
0.001500  93.200000
0.003000  93.200000
0.000700  93.100000
-0.000800  93.100000
0.000000  93.100000
-0.002300  93.100000
-0.000800  93.000000
-0.000800  93.000000
0.000700  92.900000
0.000700  92.900000
-0.002300  92.800000
-0.000800  92.800000
-0.000800  92.700000
-0.002300  92.700000
-0.001500  92.700000
-0.000800  92.700000
-0.003000  92.600000
-0.002300  92.600000
0.001500  92.500000
0.003000  92.500000
0.007500  92.400000
0.009000  92.400000
0.008200  92.300000
0.006700  92.300000
0.004500  92.200000
0.004500  92.200000
0.001500  92.200000
-0.000800  92.100000
-0.003800  92.100000
-0.004600  92.000000
-0.002300  92.000000
-0.003000  91.900000
-0.006000  91.800000
-0.009100  91.800000
-0.010500  91.800000
-0.007500  91.700000
-0.004600  91.700000
0.001500  91.600000
0.004500  91.600000
0.003000  91.500000
0.001500  91.500000
-0.000800  91.400000
-0.000800  91.300000
0.000000  91.300000
0.000700  91.300000
-0.000800  91.300000
0.001500  91.200000
0.005200  91.100000
0.005200  91.100000
0.004500  91.000000
0.001500  91.000000
-0.000800  90.900000
0.000000  90.900000
0.000700  90.800000
-0.000800  90.800000
-0.001500  90.800000
-0.003000  90.700000
-0.003800  90.600000
0.000700  90.600000
0.003000  90.500000
0.003700  90.500000
0.005200  90.400000
0.005200  90.400000
0.001500  90.400000
0.000000  90.300000
-0.000800  90.300000
-0.001500  90.200000
-0.002300  90.100000
0.000700  90.100000
0.004500  90.000000
0.001500  90.000000
0.003000  90.000000
0.003000  89.900000
0.000700  89.900000
0.003700  89.800000
0.003000  89.800000
0.003700  89.700000
0.005200  89.600000
0.006700  89.600000
0.006700  89.500000
0.005200  89.500000
0.002200  89.500000
0.002200  89.400000
0.004500  89.400000
-0.000800  89.300000
-0.005300  89.300000
-0.006800  89.200000
-0.000800  89.200000
0.000700  89.100000
0.000700  89.100000
0.001500  89.100000
-0.000800  89.000000
0.001500  89.000000
0.000700  88.900000
-0.001500  88.900000
-0.005300  88.800000
-0.008300  88.800000
-0.005300  88.700000
-0.004600  88.700000
-0.000800  88.600000
0.000700  88.600000
0.001500  88.600000
0.004500  88.500000
0.000700  88.500000
-0.001500  88.400000
-0.002300  88.400000
0.000700  88.300000
0.000700  88.300000
0.000700  88.300000
0.001500  88.200000
0.001500  88.200000
0.005200  88.200000
0.005200  88.100000
0.005200  88.100000
0.006000  88.000000
0.004500  88.000000
0.003000  87.900000
0.001500  87.900000
0.000700  87.900000
-0.001500  87.800000
-0.003000  87.800000
-0.003000  87.700000
-0.003000  87.700000
-0.005300  87.700000
-0.006000  87.600000
-0.003800  87.600000
-0.001500  87.600000
0.001500  87.500000
0.003000  87.500000
0.006700  87.400000
0.008200  87.400000
0.008200  87.400000
0.005200  87.300000
0.001500  87.300000
0.000700  87.300000
-0.001500  87.300000
-0.001500  87.200000
-0.003800  87.200000
0.000700  87.100000
0.004500  87.100000
0.004500  87.100000
0.004500  87.000000
0.001500  86.900000
0.000700  86.900000
-0.000800  86.900000
-0.000800  86.900000
-0.001500  86.800000
-0.001500  86.800000
-0.002300  86.800000
-0.000800  86.800000
0.000700  86.800000
0.000700  86.700000
0.001500  86.700000
0.003000  86.700000
0.000700  86.600000
0.004500  86.600000
0.004500  86.600000
0.000700  86.500000
0.000700  86.500000
0.000700  86.500000
0.000700  86.400000
-0.000800  86.400000
-0.000800  86.300000
-0.000800  86.300000
0.001500  86.300000
0.004500  86.300000
0.004500  86.300000
0.005200  86.300000
0.006700  86.200000
0.006000  86.200000
0.001500  86.200000
-0.000800  86.100000
-0.001500  86.100000
-0.004600  86.100000
-0.005300  86.000000
-0.004600  86.000000
-0.005300  86.000000
-0.004600  85.900000
-0.001500  85.900000
-0.000800  85.900000
-0.000800  85.900000
0.000700  85.900000
0.003000  85.800000
0.002200  85.800000
-0.000800  85.800000
-0.000800  85.700000
-0.001500  85.700000
-0.000800  85.600000
0.004500  85.600000
0.004500  85.600000
0.003000  85.500000
-0.000800  85.500000
-0.000800  85.500000
-0.000800  85.500000
-0.002300  85.500000
0.001500  85.400000
0.006700  85.400000
0.010500  85.300000
0.012700  85.300000
0.010500  85.300000
0.009700  85.200000
0.007500  85.200000
0.004500  85.100000
0.003700  85.100000
0.000000  85.100000
-0.003000  85.100000
0.000000  85.100000
0.001500  85.000000
0.003000  85.000000
0.004500  85.000000
0.003000  85.000000
-0.000800  85.000000
-0.002300  84.900000
-0.000800  84.900000
0.000700  84.900000
0.001500  84.800000
0.000700  84.800000
-0.001500  84.800000
-0.003800  84.700000
-0.003000  84.700000
0.000000  84.700000
0.000700  84.700000
0.000000  84.600000
0.001500  84.600000
0.001500  84.600000
0.001500  84.600000
0.002200  84.500000
0.001500  84.500000
0.004500  84.500000
0.003700  84.400000
0.000700  84.400000
-0.001500  84.400000
-0.001500  84.300000
0.001500  84.300000
0.004500  84.300000
0.006700  84.200000
0.005200  84.200000
0.000000  84.100000
-0.003800  84.100000
-0.005300  84.100000
-0.003000  84.100000
-0.000800  84.100000
-0.000800  84.000000
0.001500  84.000000
0.003000  83.900000
0.003700  83.900000
0.005200  83.900000
0.006000  83.800000
0.006700  83.800000
0.006700  83.700000
0.003000  83.700000
-0.000800  83.700000
-0.005300  83.700000
-0.005300  83.600000
-0.006000  83.600000
-0.006800  83.600000
-0.005300  83.500000
-0.003800  83.500000
-0.002300  83.400000
-0.001500  83.400000
-0.001500  83.400000
-0.002300  83.300000
0.000700  83.200000
0.006700  83.200000
0.008200  83.200000
0.006000  83.200000
0.003700  83.200000
0.001500  83.100000
0.000700  83.100000
0.000700  83.000000
0.000000  83.000000
0.000000  82.900000
-0.000800  82.900000
-0.000800  82.900000
-0.001500  82.800000
-0.001500  82.800000
0.000700  82.800000
0.000700  82.700000
0.000000  82.700000
-0.003000  82.700000
-0.002300  82.600000
-0.001500  82.600000
0.002200  82.500000
0.003700  82.500000
0.003700  82.400000
0.004500  82.400000
0.003700  82.300000
0.003000  82.300000
0.002200  82.300000
0.003700  82.200000
0.004500  82.200000
0.004500  82.100000
0.003000  82.100000
0.003700  82.100000
0.003000  82.000000
0.001500  82.000000
0.003000  81.900000
0.004500  81.900000
0.004500  81.800000
0.001500  81.800000
0.000000  81.800000
-0.000800  81.700000
-0.000800  81.600000
-0.003000  81.600000
-0.003800  81.600000
-0.003800  81.500000
-0.003000  81.400000
-0.003000  81.400000
-0.002300  81.400000
0.000700  81.300000
0.000700  81.200000
0.003000  81.200000
0.001500  81.100000
0.000700  81.100000
0.001500  81.000000
0.000000  81.000000
-0.000800  80.900000
-0.003000  80.900000
-0.001500  80.800000
0.002200  80.800000
0.001500  80.700000
0.003000  80.600000
0.004500  80.500000
0.003000  80.500000
0.001500  80.500000
0.001500  80.400000
0.000700  80.400000
0.000700  80.300000
-0.000800  80.200000
0.001500  80.200000
0.001500  80.100000
0.001500  80.100000
0.003000  80.000000
0.001500  79.900000
0.002200  79.900000
0.000700  79.800000
-0.003000  79.700000
-0.003000  79.700000
-0.003000  79.600000
0.000700  79.600000
0.001500  79.500000
0.000700  79.400000
-0.000800  79.300000
-0.001500  79.300000
-0.001500  79.200000
-0.002300  79.200000
0.000700  79.200000
0.003700  79.100000
0.004500  79.000000
0.003000  79.000000
0.002200  78.900000
0.001500  78.800000
0.000700  78.800000
0.004500  78.700000
0.004500  78.700000
0.003000  78.600000
0.000000  78.600000
-0.005300  78.500000
-0.005300  78.400000
-0.004600  78.400000
-0.002300  78.300000
0.000000  78.300000
0.001500  78.200000
0.003000  78.200000
0.003700  78.100000
0.003000  78.000000
0.003000  78.000000
0.000700  77.900000
-0.001500  77.800000
-0.001500  77.800000
0.000700  77.800000
0.003000  77.700000
0.004500  77.600000
0.006000  77.600000
0.005200  77.500000
0.005200  77.400000
0.005200  77.400000
0.000700  77.300000
-0.003000  77.300000
-0.001500  77.200000
0.000000  77.200000
0.002200  77.100000
0.001500  77.000000
0.003000  77.000000
0.003700  76.900000
0.001500  76.900000
0.000700  76.800000
-0.002300  76.700000
-0.003000  76.700000
-0.004600  76.600000
-0.005300  76.500000
-0.003000  76.500000
0.000700  76.400000
-0.000800  76.400000
0.001500  76.300000
0.005200  76.200000
0.008200  76.200000
0.008200  76.100000
0.006700  76.000000
0.007500  76.000000
0.001500  76.000000
-0.003000  75.900000
-0.002300  75.800000
-0.001500  75.700000
-0.000800  75.700000
0.000700  75.600000
-0.000800  75.600000
-0.000800  75.500000
-0.000800  75.400000
0.000700  75.400000
0.003000  75.300000
0.001500  75.200000
0.002200  75.100000
0.003000  75.100000
0.001500  75.000000
-0.000800  74.900000
-0.000800  74.900000
0.001500  74.800000
0.001500  74.700000
0.003000  74.700000
0.002200  74.600000
0.000700  74.600000
-0.002300  74.400000
-0.005300  74.400000
-0.004600  74.300000
-0.004600  74.200000
-0.006800  74.200000
-0.007500  74.100000
-0.006000  74.000000
-0.005300  74.000000
-0.003000  73.900000
-0.000800  73.800000
0.000700  73.800000
0.001500  73.700000
0.002200  73.600000
0.005200  73.500000
0.006700  73.500000
0.006000  73.400000
0.008200  73.300000
0.006700  73.300000
0.004500  73.200000
0.005200  73.100000
0.004500  73.000000
0.004500  72.900000
0.004500  72.900000
0.003000  72.800000
0.000700  72.700000
-0.000800  72.600000
-0.001500  72.500000
-0.004600  72.500000
-0.002300  72.400000
-0.003000  72.300000
-0.004600  72.200000
-0.003000  72.200000
-0.002300  72.100000
-0.000800  72.000000
0.001500  72.000000
0.004500  71.900000
0.004500  71.800000
0.005200  71.700000
0.005200  71.600000
0.004500  71.500000
0.004500  71.400000
0.003000  71.400000
0.001500  71.300000
0.002200  71.200000
0.003000  71.100000
0.003700  71.100000
0.001500  71.000000
-0.001500  70.900000
-0.001500  70.800000
-0.000800  70.700000
0.000000  70.600000
-0.002300  70.600000
-0.004600  70.500000
-0.006800  70.400000
-0.006800  70.300000
-0.005300  70.200000
-0.004600  70.200000
-0.002300  70.100000
-0.001500  70.000000
-0.000800  69.900000
0.000700  69.800000
0.001500  69.700000
0.003700  69.700000
0.003700  69.600000
0.002200  69.500000
0.001500  69.400000
0.003700  69.300000
0.006700  69.300000
0.008200  69.200000
0.006700  69.100000
0.006000  69.000000
0.005200  68.900000
0.002200  68.800000
0.004500  68.700000
0.004500  68.600000
0.001500  68.500000
0.004500  68.500000
0.003700  68.400000
0.003000  68.300000
0.003000  68.200000
0.001500  68.100000
0.000000  68.000000
-0.001500  67.900000
-0.001500  67.900000
0.000700  67.800000
0.000700  67.700000
0.000700  67.600000
0.001500  67.500000
0.000000  67.500000
0.001500  67.400000
0.003000  67.300000
0.003000  67.200000
0.003000  67.100000
0.001500  67.000000
0.000700  66.900000
-0.000800  66.800000
-0.002300  66.800000
0.000700  66.700000
0.003000  66.600000
0.000700  66.500000
0.000700  66.400000
0.001500  66.300000
-0.000800  66.200000
-0.000800  66.100000
-0.000800  66.100000
-0.000800  66.000000
0.000700  65.900000
0.001500  65.800000
-0.000800  65.700000
-0.001500  65.700000
-0.003000  65.600000
0.000700  65.500000
0.004500  65.400000
0.006700  65.300000
0.007500  65.200000
0.006700  65.200000
0.006700  65.100000
0.003700  65.000000
0.002200  64.900000
-0.001500  64.800000
-0.005300  64.700000
-0.004600  64.700000
-0.004600  64.600000
-0.003000  64.500000
-0.001500  64.400000
-0.003000  64.300000
-0.006000  64.300000
-0.006000  64.200000
-0.007500  64.100000
-0.006800  64.000000
-0.004600  63.900000
-0.006800  63.900000
-0.006800  63.800000
-0.006800  63.700000
-0.004600  63.600000
-0.002300  63.500000
0.001500  63.400000
0.004500  63.400000
0.004500  63.300000
0.001500  63.200000
0.000700  63.100000
0.004500  63.000000
0.004500  63.000000
0.006000  62.900000
0.008200  62.800000
0.008200  62.700000
0.003700  62.600000
0.003000  62.500000
0.003700  62.500000
0.002200  62.400000
0.003000  62.300000
0.004500  62.200000
0.004500  62.100000
0.003000  62.100000
0.003000  62.000000
0.002200  61.900000
0.004500  61.800000
0.004500  61.700000
0.002200  61.600000
0.004500  61.600000
0.002200  61.400000
0.000700  61.400000
0.000700  61.300000
0.000700  61.200000
0.000700  61.200000
0.000700  61.100000
0.000700  61.000000
0.002200  60.900000
0.004500  60.800000
0.003700  60.700000
0.003000  60.700000
-0.000800  60.600000
-0.000800  60.500000
0.000700  60.400000
0.000700  60.300000
0.001500  60.300000
0.001500  60.200000
0.003000  60.100000
0.002200  60.000000
-0.000800  59.900000
-0.000800  59.800000
0.000700  59.800000
-0.001500  59.700000
-0.001500  59.600000
-0.000800  59.500000
0.000700  59.400000
0.000700  59.400000
0.000700  59.300000
0.000700  59.200000
-0.001500  59.100000
-0.003000  59.000000
-0.003800  59.000000
-0.003800  58.900000
-0.004600  58.800000
-0.001500  58.800000
0.000000  58.700000
0.000000  58.600000
0.001500  58.500000
0.003700  58.400000
0.006700  58.400000
0.005200  58.200000
0.004500  58.200000
0.003000  58.100000
0.002200  58.000000
0.001500  58.000000
0.002200  57.900000
0.001500  57.800000
-0.002300  57.700000
-0.003000  57.600000
-0.003000  57.500000
-0.003000  57.400000
-0.002300  57.400000
-0.000800  57.300000
0.002200  57.200000
0.003000  57.100000
0.003700  57.000000
0.004500  56.900000
0.006700  56.900000
0.008200  56.800000
0.008200  56.700000
0.005200  56.600000
0.001500  56.500000
0.001500  56.500000
0.000700  56.400000
-0.001500  56.300000
-0.001500  56.200000
-0.001500  56.200000
-0.003000  56.100000
-0.003800  56.000000
-0.004600  55.900000
-0.003000  55.800000
-0.002300  55.800000
-0.003800  55.700000
-0.004600  55.600000
-0.003800  55.500000
-0.001500  55.400000
-0.003000  55.400000
-0.003800  55.300000
-0.003800  55.200000
-0.003800  55.200000
-0.003000  55.000000
-0.003000  55.000000
-0.001500  54.900000
-0.001500  54.900000
0.001500  54.800000
0.003000  54.700000
0.001500  54.600000
0.000000  54.500000
0.000700  54.400000
0.002200  54.400000
0.003000  54.300000
0.006700  54.200000
0.006700  54.200000
0.009000  54.100000
0.009700  54.000000
0.009700  53.900000
0.012700  53.900000
0.012700  53.800000
0.011200  53.700000
0.009000  53.600000
0.006700  53.500000
0.004500  53.500000
0.005200  53.400000
0.003000  53.300000
0.000700  53.200000
0.000700  53.100000
-0.002300  53.100000
-0.000800  53.000000
0.000700  52.900000
-0.001500  52.900000
-0.005300  52.800000
-0.004600  52.700000
-0.002300  52.600000
-0.004600  52.600000
-0.004600  52.500000
-0.001500  52.400000
-0.001500  52.300000
-0.002300  52.200000
-0.003000  52.200000
-0.002300  52.100000
0.001500  52.000000
0.000000  51.900000
0.000700  51.800000
0.000700  51.800000
0.000700  51.700000
0.003000  51.600000
0.003000  51.500000
0.003000  51.400000
0.000000  51.400000
0.001500  51.300000
0.001500  51.200000
0.000700  51.100000
0.002200  51.000000
0.003000  51.000000
0.003000  50.900000
0.003000  50.800000
0.004500  50.700000
0.003700  50.600000
0.003700  50.600000
0.003000  50.500000
-0.000800  50.400000
0.000000  50.300000
-0.000800  50.300000
-0.005300  50.200000
-0.008300  50.100000
-0.008300  50.000000
-0.008300  49.900000
-0.005300  49.900000
-0.005300  49.800000
-0.004600  49.700000
-0.005300  49.600000
-0.003800  49.500000
-0.003000  49.500000
-0.001500  49.400000
0.000700  49.300000
0.000700  49.200000
0.002200  49.200000
0.004500  49.100000
0.005200  49.000000
0.007500  49.000000
0.006700  48.800000
0.005200  48.800000
0.005200  48.700000
0.004500  48.600000
0.005200  48.600000
0.004500  48.500000
0.005200  48.400000
0.005200  48.300000
0.004500  48.200000
0.005200  48.200000
0.005200  48.100000
0.004500  48.000000
0.005200  48.000000
0.004500  47.900000
0.001500  47.800000
0.002200  47.700000
0.000700  47.600000
0.000700  47.600000
0.000700  47.500000
-0.003000  47.400000
-0.004600  47.300000
-0.004600  47.200000
-0.003000  47.200000
-0.001500  47.100000
0.001500  47.000000
0.004500  46.900000
0.006700  46.800000
0.009000  46.800000
0.006700  46.700000
0.005200  46.600000
0.003700  46.500000
0.001500  46.500000
0.001500  46.400000
0.003000  46.300000
0.004500  46.300000
0.001500  46.200000
-0.001500  46.100000
-0.003000  46.000000
-0.004600  45.900000
-0.005300  45.900000
-0.003800  45.700000
-0.003800  45.700000
-0.004600  45.600000
-0.003000  45.500000
-0.003800  45.400000
-0.008300  45.400000
-0.008300  45.300000
-0.005300  45.200000
-0.004600  45.100000
-0.002300  45.000000
-0.000800  45.000000
0.002200  44.900000
0.001500  44.800000
0.003000  44.700000
0.003700  44.600000
0.004500  44.500000
0.004500  44.500000
0.004500  44.400000
0.004500  44.300000
0.003700  44.200000
0.003700  44.100000
0.005200  44.100000
0.005200  44.000000
0.003000  43.900000
0.000700  43.800000
0.001500  43.700000
0.001500  43.700000
0.001500  43.600000
0.000700  43.500000
0.000700  43.500000
0.001500  43.400000
0.002200  43.300000
0.001500  43.200000
0.003000  43.100000
0.003700  43.100000
0.000700  43.000000
0.000000  42.900000
-0.001500  42.800000
-0.001500  42.700000
-0.001500  42.700000
-0.000800  42.600000
-0.000800  42.500000
-0.001500  42.400000
0.000700  42.400000
0.004500  42.300000
0.004500  42.200000
0.003000  42.100000
0.002200  42.000000
0.003000  42.000000
0.003000  41.900000
0.001500  41.800000
0.003000  41.700000
0.003000  41.600000
0.000000  41.600000
0.000000  41.500000
-0.002300  41.400000
-0.005300  41.300000
-0.006800  41.200000
-0.007500  41.200000
-0.004600  41.100000
-0.005300  40.900000
-0.005300  40.900000
-0.004600  40.900000
-0.005300  40.800000
-0.003800  40.700000
-0.003000  40.600000
-0.002300  40.500000
-0.002300  40.500000
-0.000800  40.400000
0.001500  40.300000
0.001500  40.200000
0.003700  40.100000
0.006700  40.000000
0.003700  40.000000
0.000700  39.900000
0.002200  39.800000
0.000700  39.700000
0.001500  39.600000
0.005200  39.600000
0.006700  39.500000
0.006700  39.400000
0.009000  39.300000
0.012000  39.300000
0.010500  39.200000
0.010500  39.100000
0.009000  39.000000
0.008200  39.000000
0.004500  38.900000
0.003000  38.800000
0.003000  38.700000
0.003000  38.600000
0.002200  38.600000
0.000700  38.500000
0.000700  38.400000
0.000700  38.300000
-0.001500  38.200000
-0.003000  38.200000
-0.000800  38.100000
-0.000800  38.000000
-0.003000  38.000000
-0.003000  37.800000
-0.001500  37.800000
-0.000800  37.800000
-0.004600  37.700000
-0.006800  37.600000
-0.006800  37.500000
-0.005300  37.400000
-0.003800  37.300000
-0.003000  37.300000
-0.000800  37.200000
-0.001500  37.100000
-0.000800  37.100000
-0.000800  37.000000
-0.001500  36.900000
0.002200  36.900000
0.003000  36.800000
0.000000  36.700000
-0.000800  36.600000
-0.001500  36.500000
-0.002300  36.500000
-0.001500  36.400000
0.000700  36.300000
0.002200  36.300000
0.003000  36.200000
0.004500  36.100000
0.007500  36.000000
0.007500  36.000000
0.006700  35.900000
0.009000  35.800000
0.010500  35.800000
0.009700  35.700000
0.010500  35.600000
0.010500  35.500000
0.008200  35.500000
0.006700  35.400000
0.008200  35.300000
0.009000  35.200000
0.010500  35.200000
0.009000  35.100000
0.012000  35.100000
0.012000  34.900000
0.005200  34.900000
0.004500  34.800000
0.000700  34.700000
-0.001500  34.700000
-0.003000  34.600000
-0.006000  34.600000
-0.006000  34.500000
-0.006800  34.400000
-0.007500  34.300000
-0.006800  34.200000
-0.005300  34.200000
-0.004600  34.100000
-0.004600  34.100000
-0.003800  34.000000
-0.003000  33.900000
-0.003000  33.800000
-0.003800  33.800000
-0.003800  33.700000
-0.005300  33.700000
-0.006000  33.500000
-0.005300  33.500000
-0.005300  33.400000
-0.004600  33.300000
-0.004600  33.300000
-0.006000  33.200000
-0.004600  33.100000
-0.003000  33.000000
0.000700  32.900000
0.002200  32.900000
0.000700  32.800000
-0.000800  32.700000
-0.001500  32.700000
0.000700  32.600000
0.001500  32.500000
0.003000  32.400000
0.006700  32.400000
0.005200  32.300000
0.002200  32.200000
0.002200  32.100000
0.001500  32.000000
0.001500  31.900000
0.003000  31.900000
0.003000  31.800000
0.004500  31.700000
0.003700  31.600000
0.003000  31.500000
0.005200  31.500000
0.006700  31.400000
0.008200  31.300000
0.006700  31.200000
0.000700  31.200000
-0.001500  31.100000
-0.002300  31.000000
0.000700  31.000000
0.002200  30.900000
0.001500  30.800000
0.000000  30.700000
0.000700  30.600000
0.000700  30.600000
0.000700  30.400000
0.002200  30.400000
0.006700  30.300000
0.012700  30.200000
0.020200  30.100000
0.023200  30.000000
0.021700  30.000000
0.021700  29.900000
0.022500  29.800000
0.030700  29.700000
0.074200  29.600000
0.121500  29.500000
0.138700  29.400000
0.156000  29.300000
0.144700  29.200000
0.116200  29.200000
0.102700  29.100000
0.078000  29.000000
0.070500  28.900000
0.060700  28.800000
0.042700  28.700000
0.034500  28.700000
0.020200  28.600000
0.008200  28.500000
-0.004600  28.400000
-0.012800  28.300000
-0.019500  28.300000
-0.027800  28.200000
-0.033000  28.100000
-0.018800  28.000000
0.013500  27.900000
0.015000  27.800000
-0.008300  27.700000
-0.023300  27.600000
-0.039800  27.500000
-0.050300  27.400000
-0.060800  27.400000
-0.069100  27.300000
-0.071300  27.200000
-0.081000  27.100000
-0.084800  27.000000
-0.084000  27.000000
-0.082500  26.900000
-0.081000  26.800000
-0.080300  26.700000
-0.072800  26.700000
-0.066000  26.600000
-0.060000  26.500000
-0.057000  26.500000
-0.052500  26.400000
-0.051100  26.300000
-0.048000  26.200000
-0.043600  26.100000
-0.044300  26.100000
-0.043600  26.000000
-0.042000  25.900000
-0.039000  25.900000
-0.036800  25.800000
-0.035300  25.700000
-0.033800  25.600000
-0.031500  25.500000
-0.028500  25.500000
-0.027800  25.400000
-0.028500  25.300000
-0.023300  25.300000
-0.013500  25.200000
-0.008300  25.100000
-0.005300  25.100000
0.000700  25.000000
0.006000  24.900000
0.006700  24.800000
0.008200  24.700000
0.007500  24.700000
0.009000  24.600000
0.008200  24.600000
0.004500  24.500000
0.002200  24.400000
-0.003000  24.300000
-0.005300  24.300000
-0.006800  24.200000
-0.009100  24.100000
-0.009800  24.100000
-0.009100  24.000000
-0.008300  23.900000
-0.008300  23.800000
-0.009100  23.800000
-0.007500  23.700000
-0.006000  23.700000
-0.005300  23.600000
-0.003000  23.500000
-0.000800  23.400000
0.003000  23.400000
0.003000  23.400000
0.003000  23.300000
0.001500  23.200000
0.000000  23.100000
0.000700  23.100000
0.003000  23.000000
0.005200  22.900000
0.008200  22.900000
0.011200  22.800000
0.014200  22.800000
0.012700  22.700000
0.012000  22.600000
0.013500  22.600000
0.012700  22.500000
0.008200  22.500000
0.007500  22.400000
0.011200  22.300000
0.017200  22.300000
0.022500  22.200000
0.023200  22.100000
0.021700  22.100000
0.020200  22.000000
0.019500  22.000000
0.021700  21.900000
0.024000  21.800000
0.024000  21.800000
0.020200  21.700000
0.018000  21.600000
0.016500  21.500000
0.014200  21.500000
0.012700  21.500000
0.009700  21.400000
0.012700  21.300000
0.012700  21.300000
0.012000  21.200000
0.012000  21.100000
0.012700  21.100000
0.011200  21.000000
0.012000  21.000000
0.014200  20.900000
0.010500  20.800000
0.017200  20.800000
0.020200  20.700000
0.015000  20.700000
0.015700  20.600000
0.013500  20.500000
0.014200  20.500000
0.015700  20.400000
0.012000  20.300000
0.010500  20.200000
0.007500  20.200000
0.001500  20.100000
-0.003800  20.000000
-0.005300  20.000000
-0.008300  19.900000
-0.008300  19.800000
-0.012000  19.800000
-0.012800  19.700000
-0.013500  19.600000
-0.013500  19.500000
-0.007500  19.400000
-0.005300  19.400000
-0.007500  19.300000
-0.010500  19.200000
-0.015800  19.200000
-0.014300  19.100000
-0.009800  19.000000
-0.006000  18.900000
-0.001500  18.800000
0.002200  18.800000
0.004500  18.700000
0.006700  18.600000
0.005200  18.500000
0.006700  18.400000
0.008200  18.400000
0.008200  18.300000
0.010500  18.200000
0.016500  18.200000
0.023200  18.100000
0.021700  18.000000
0.015700  18.000000
0.010500  17.900000
0.009000  17.800000
0.010500  17.700000
0.009000  17.600000
0.012700  17.500000
0.013500  17.500000
0.008200  17.400000
0.003700  17.300000
0.001500  17.200000
0.000000  17.200000
-0.001500  17.100000
0.000000  17.000000
-0.002300  17.000000
-0.005300  16.900000
-0.012000  16.800000
-0.014300  16.700000
-0.015800  16.600000
-0.015800  16.600000
-0.015000  16.500000
-0.015800  16.400000
-0.012000  16.400000
-0.009100  16.300000
-0.003000  16.200000
-0.002300  16.200000
-0.004600  16.100000
-0.003800  16.000000
0.000700  15.900000
0.007500  15.800000
0.009000  15.800000
0.009000  15.700000
0.009000  15.700000
0.008200  15.600000
0.006700  15.500000
0.007500  15.500000
0.006700  15.400000
0.003000  15.300000
0.000700  15.300000
0.000000  15.200000
-0.003000  15.200000
-0.006000  15.100000
-0.010500  15.000000
-0.012000  15.000000
-0.012000  14.900000
-0.010500  14.800000
-0.005300  14.800000
-0.004600  14.800000
-0.001500  14.700000
0.000000  14.600000
-0.000800  14.600000
0.001500  14.500000
0.007500  14.400000
0.013500  14.400000
0.012700  14.300000
0.012000  14.300000
0.010500  14.200000
0.006700  14.200000
0.004500  14.100000
0.006700  14.000000
0.010500  14.000000
0.012000  13.900000
0.012000  13.900000
0.012000  13.800000
0.009700  13.700000
0.007500  13.700000
0.000700  13.600000
-0.006800  13.600000
-0.008300  13.500000
-0.008300  13.400000
-0.008300  13.400000
-0.006000  13.400000
-0.004600  13.300000
-0.002300  13.300000
0.000700  13.200000
0.000700  13.100000
0.001500  13.100000
0.003000  13.000000
0.004500  13.000000
0.006000  13.000000
0.003000  12.900000
0.001500  12.900000
0.003000  12.800000
0.001500  12.800000
-0.000800  12.700000
-0.002300  12.600000
-0.002300  12.600000
-0.002300  12.600000
-0.003000  12.500000
-0.005300  12.400000
-0.004600  12.400000
-0.003800  12.400000
-0.000800  12.300000
-0.000800  12.300000
-0.001500  12.200000
0.000700  12.200000
0.001500  12.200000
0.003000  12.100000
0.000700  12.100000
-0.001500  12.100000
-0.001500  12.000000
0.000700  12.000000
0.000000  11.900000
-0.001500  11.900000
-0.005300  11.800000
-0.008300  11.800000
-0.006800  11.800000
-0.008300  11.700000
-0.007500  11.700000
-0.004600  11.600000
-0.003000  11.600000
0.001500  11.600000
0.005200  11.500000
0.003700  11.500000
0.006000  11.400000
0.009700  11.400000
0.008200  11.300000
0.003700  11.300000
-0.003000  11.200000
-0.000800  11.200000
0.003000  11.200000
0.003000  11.200000
0.003000  11.100000
0.001500  11.100000
0.005200  11.000000
0.007500  11.000000
0.005200  10.900000
0.001500  10.900000
0.001500  10.800000
0.002200  10.700000
0.003700  10.700000
0.006000  10.700000
0.005200  10.700000
0.006700  10.600000
0.007500  10.600000
0.012000  10.600000
0.012700  10.500000
0.011200  10.500000
0.007500  10.400000
0.003000  10.400000
0.000700  10.300000
-0.001500  10.300000
-0.002300  10.300000
-0.002300  10.200000
0.004500  10.200000
0.009000  10.200000
0.006000  10.100000
0.003000  10.100000
0.000000  10.000000
-0.001500  9.900000
0.000700  9.900000
0.001500  9.900000
0.000000  9.900000
0.000000  9.900000
-0.000800  9.800000
0.001500  9.800000
0.001500  9.800000
0.000700  9.700000
0.000700  9.700000
-0.003000  9.600000
-0.003000  9.600000
-0.001500  9.600000
-0.000800  9.500000
-0.000800  9.500000
0.000700  9.500000
0.000000  9.400000
-0.005300  9.400000
-0.002300  9.400000
-0.002300  9.400000
-0.005300  9.300000
-0.003800  9.300000
-0.003800  9.300000
-0.003000  9.200000
-0.000800  9.200000
0.003000  9.100000
0.004500  9.100000
0.003000  9.100000
0.004500  9.000000
0.006700  9.000000
0.007500  9.000000
0.003700  9.000000
-0.003800  9.000000
-0.004600  8.900000
-0.000800  8.900000
-0.000800  8.800000
0.001500  8.800000
0.000700  8.800000
-0.001500  8.700000
-0.000800  8.700000
-0.001500  8.600000
0.001500  8.600000
0.002200  8.600000
0.001500  8.600000
0.005200  8.600000
0.004500  8.500000
0.003000  8.500000
0.003700  8.500000
-0.000800  8.500000
-0.003000  8.500000
-0.003000  8.400000
-0.001500  8.400000
-0.004600  8.400000
-0.006800  8.300000
-0.006000  8.300000
-0.004600  8.300000
0.003700  8.200000
0.005200  8.200000
0.003000  8.200000
0.004500  8.200000
0.005200  8.100000
0.008200  8.100000
0.009700  8.100000
0.012700  8.100000
0.007500  8.100000
0.003000  8.000000
0.001500  8.000000
0.001500  8.000000
0.001500  8.000000
0.000700  8.000000
0.000700  7.900000
0.004500  7.900000
0.007500  7.900000
0.005200  7.800000
-0.001500  7.800000
-0.001500  7.800000
-0.002300  7.800000
-0.001500  7.800000
-0.001500  7.700000
-0.001500  7.700000
-0.003800  7.600000
-0.002300  7.600000
0.001500  7.600000
-0.000800  7.600000
-0.003000  7.600000
-0.004600  7.600000
-0.003000  7.600000
0.004500  7.600000
0.005200  7.600000
0.004500  7.500000
0.003000  7.500000
-0.000800  7.500000
-0.000800  7.500000
0.000700  7.500000
-0.003000  7.400000
0.000000  7.400000
0.003700  7.400000
0.003000  7.400000
0.000700  7.400000
-0.002300  7.300000
-0.000800  7.300000
0.003000  7.300000
0.002200  7.300000
-0.001500  7.300000
-0.001500  7.300000
0.000000  7.200000
-0.002300  7.200000
-0.001500  7.200000
0.001500  7.200000
0.000700  7.200000
-0.003800  7.200000
-0.005300  7.200000
-0.003000  7.200000
-0.001500  7.100000
-0.003000  7.100000
-0.002300  7.100000
0.000700  7.100000
0.005200  7.100000
0.001500  7.100000
0.000700  7.000000
0.003000  7.000000
-0.003000  7.000000
-0.005300  7.000000
-0.004600  7.000000
-0.003800  6.900000
-0.001500  6.900000
-0.002300  6.900000
-0.003000  6.900000
-0.005300  6.900000
-0.003000  6.800000
0.000000  6.800000
0.001500  6.800000
0.000700  6.800000
0.003700  6.800000
0.005200  6.700000
0.008200  6.700000
0.012000  6.700000
0.008200  6.700000
0.003000  6.700000
0.003700  6.700000
0.005200  6.600000
0.005200  6.600000
0.000700  6.600000
-0.001500  6.600000
-0.000800  6.600000
0.003000  6.600000
0.005200  6.600000
0.006700  6.600000
0.008200  6.500000
0.004500  6.500000
-0.000800  6.500000
-0.004600  6.500000
-0.006000  6.500000
-0.005300  6.400000
0.005200  6.400000
0.013500  6.400000
0.007500  6.400000
0.003700  6.400000
0.009000  6.400000
0.009700  6.300000
0.006000  6.300000
0.003700  6.300000
0.004500  6.300000
0.003000  6.300000
0.006700  6.300000
0.009000  6.300000
0.004500  6.300000
0.003000  6.300000
-0.003000  6.200000
-0.009100  6.200000
-0.012800  6.200000
-0.012000  6.200000
-0.008300  6.200000
-0.009100  6.100000
-0.004600  6.100000
-0.006800  6.100000
-0.007500  6.100000
-0.005300  6.100000
-0.005300  6.100000
-0.004600  6.000000
-0.003800  6.000000
-0.000800  6.000000
0.003000  6.000000
0.001500  6.000000
0.001500  6.000000
-0.001500  5.900000
-0.002300  5.900000
0.002200  5.900000
0.004500  5.900000
0.006700  5.900000
0.006000  5.900000
0.009000  5.900000
0.012700  5.800000
0.008200  5.800000
0.006000  5.800000
0.006700  5.800000
0.008200  5.800000
0.009000  5.800000
0.006700  5.800000
0.003700  5.800000
0.001500  5.700000
0.000000  5.700000
-0.001500  5.700000
0.001500  5.700000
0.004500  5.700000
0.003700  5.700000
0.000000  5.700000
0.000700  5.700000
0.005200  5.700000
0.001500  5.600000
-0.000800  5.600000
-0.001500  5.600000
-0.004600  5.600000
-0.004600  5.600000
0.003700  5.600000
0.012700  5.500000
0.010500  5.500000
0.003000  5.500000
0.000700  5.500000
-0.001500  5.500000
-0.003000  5.400000
-0.003000  5.400000
-0.001500  5.400000
-0.003800  5.400000
-0.004600  5.400000
-0.002300  5.400000
-0.001500  5.400000
-0.003000  5.400000
-0.007500  5.400000
-0.008300  5.400000
-0.003800  5.400000
-0.003800  5.400000
-0.001500  5.400000
0.003000  5.400000
0.005200  5.400000
0.003000  5.400000
-0.000800  5.400000
-0.000800  5.300000
-0.000800  5.300000
0.000700  5.300000
0.000000  5.300000
0.003000  5.300000
0.006000  5.300000
0.006000  5.300000
0.003000  5.300000
0.000700  5.300000
0.003000  5.300000
0.000000  5.300000
0.003000  5.300000
0.004500  5.300000
-0.003000  5.300000
-0.006000  5.300000
-0.003000  5.300000
0.001500  5.300000
-0.000800  5.300000
-0.001500  5.300000
-0.000800  5.300000
-0.003000  5.200000
-0.001500  5.200000
-0.002300  5.200000
-0.001500  5.200000
-0.001500  5.200000
-0.000800  5.200000
0.000700  5.200000
0.004500  5.100000
0.009000  5.100000
0.006700  5.100000
0.005200  5.100000
0.000700  5.100000
0.000700  5.000000
0.002200  5.000000
-0.001500  5.000000
-0.001500  5.000000
-0.005300  5.000000
-0.006000  4.900000
-0.001500  4.900000
-0.000800  4.900000
0.001500  4.900000
-0.002300  4.900000
-0.001500  4.900000
0.000700  4.800000
0.000000  4.800000
0.001500  4.800000
0.003000  4.800000
0.003000  4.700000
0.001500  4.700000
0.003700  4.700000
0.006700  4.600000
0.004500  4.600000
0.004500  4.600000
0.003000  4.500000
0.001500  4.500000
0.003000  4.500000
0.003000  4.500000
0.000700  4.500000
-0.002300  4.400000
-0.002300  4.400000
0.000700  4.400000
0.004500  4.300000
-0.000800  4.300000
-0.006000  4.200000
-0.003000  4.200000
0.001500  4.200000
0.006700  4.200000
0.009000  4.200000
0.007500  4.200000
0.006000  4.200000
0.005200  4.100000
0.000700  4.100000
-0.003000  4.100000
-0.000800  4.100000
-0.001500  4.100000
-0.003000  4.000000
-0.002300  4.000000
-0.001500  4.000000
-0.000800  4.000000
0.001500  4.000000
0.002200  4.000000
-0.000800  4.000000
-0.003000  3.900000
-0.001500  3.900000
0.003000  3.900000
0.003000  3.900000
0.000000  3.900000
0.000700  3.800000
0.001500  3.800000
0.004500  3.800000
0.010500  3.800000
0.009000  3.800000
0.001500  3.700000
0.002200  3.700000
0.001500  3.700000
0.000000  3.700000
0.003000  3.700000
0.008200  3.600000
0.011200  3.600000
0.008200  3.600000
0.004500  3.600000
0.000000  3.600000
0.000700  3.600000
-0.000800  3.500000
-0.001500  3.500000
0.000700  3.500000
0.000700  3.500000
-0.003000  3.500000
-0.006800  3.500000
-0.003000  3.500000
-0.004600  3.500000
-0.002300  3.500000
0.001500  3.500000
-0.004600  3.400000
-0.004600  3.400000
-0.000800  3.400000
0.005200  3.400000
0.006000  3.400000
0.000000  3.400000
-0.006800  3.400000
-0.006800  3.400000
-0.001500  3.300000
-0.000800  3.300000
0.000000  3.300000
-0.003000  3.300000
-0.001500  3.300000
0.000700  3.300000
0.003000  3.300000
0.005200  3.300000
0.003000  3.300000
0.001500  3.300000
0.003700  3.300000
0.005200  3.300000
0.000700  3.200000
0.000700  3.200000
0.003700  3.200000
0.000700  3.200000
-0.002300  3.200000
-0.004600  3.200000
-0.003800  3.200000
-0.003000  3.200000
-0.001500  3.200000
0.000700  3.200000
0.001500  3.100000
0.000000  3.100000
-0.001500  3.100000
0.000700  3.100000
0.001500  3.100000
0.004500  3.100000
0.005200  3.100000
0.005200  3.100000
0.005200  3.100000
0.004500  3.100000
0.002200  3.100000
0.003000  3.100000
0.005200  3.100000
0.006000  3.100000
0.009700  3.100000
0.015700  3.100000
0.015700  3.100000
0.007500  3.100000
0.001500  3.100000
0.000700  3.100000
-0.001500  3.100000
-0.002300  3.100000
-0.003000  3.100000
-0.000800  3.100000
-0.004600  3.100000
-0.010500  3.100000
-0.010500  3.100000
-0.012800  3.100000
-0.009100  3.100000
-0.001500  3.100000
0.000000  3.200000
0.003700  3.200000
0.005200  3.200000
0.000000  3.200000
-0.003000  3.200000
-0.000800  3.200000
0.003000  3.200000
0.000700  3.200000
-0.001500  3.200000
0.000700  3.200000
0.005200  3.200000
0.013500  3.200000
0.011200  3.200000
0.003000  3.200000
0.000700  3.200000
-0.003000  3.300000
-0.001500  3.300000
0.008200  3.300000
0.012700  3.300000
0.009000  3.300000
0.006000  3.300000
0.003000  3.300000
0.000000  3.300000
-0.001500  3.300000
-0.004600  3.300000
-0.003000  3.300000
-0.005300  3.300000
-0.002300  3.300000
0.003000  3.300000
0.003000  3.300000
0.001500  3.300000
-0.000800  3.300000
0.000700  3.300000
0.002200  3.300000
0.004500  3.400000
0.005200  3.400000
0.006700  3.400000
0.006000  3.400000
0.003000  3.400000
0.004500  3.400000
0.004500  3.400000
0.002200  3.400000
0.002200  3.400000
0.003000  3.400000
0.003000  3.400000
0.001500  3.400000
0.003000  3.400000
0.002200  3.500000
-0.003000  3.500000
-0.001500  3.500000
-0.000800  3.500000
-0.004600  3.500000
-0.004600  3.500000
-0.004600  3.500000
-0.003000  3.500000
-0.000800  3.500000
-0.003000  3.500000
-0.002300  3.500000
-0.001500  3.500000
-0.003000  3.500000
-0.003000  3.600000
-0.003000  3.600000
-0.003000  3.600000
-0.002300  3.600000
-0.003000  3.600000
0.000700  3.600000
0.005200  3.600000
0.001500  3.600000
0.001500  3.600000
0.005200  3.600000
0.005200  3.600000
0.004500  3.600000
0.004500  3.600000
0.003000  3.600000
0.005200  3.600000
0.009700  3.600000
0.010500  3.600000
0.003000  3.600000
-0.000800  3.600000
-0.005300  3.600000
-0.005300  3.700000
-0.004600  3.700000
-0.006000  3.700000
-0.006000  3.700000
-0.006800  3.700000
-0.006800  3.700000
-0.009100  3.700000
-0.006800  3.700000
-0.005300  3.700000
-0.006800  3.700000
-0.005300  3.700000
-0.003000  3.700000
0.001500  3.700000
0.003700  3.700000
0.003000  3.800000
0.004500  3.800000
0.003000  3.800000
0.000000  3.800000
0.002200  3.800000
0.006000  3.800000
0.009000  3.800000
0.006700  3.800000
0.001500  3.800000
0.000000  3.800000
0.000000  3.800000
0.000700  3.800000
-0.001500  3.800000
-0.006800  3.900000
-0.004600  3.900000
-0.000800  3.900000
0.005200  3.900000
0.006000  3.900000
0.005200  3.900000
0.004500  3.900000
0.002200  3.900000
0.001500  3.900000
0.003700  3.900000
0.005200  3.900000
0.007500  3.900000
0.006700  3.900000
0.007500  3.900000
0.006000  3.900000
0.005200  3.900000
0.006000  3.900000
0.005200  3.900000
0.003000  3.900000
-0.001500  3.900000
-0.003000  3.900000
0.000000  3.900000
0.005200  3.900000
0.009000  3.900000
0.005200  3.900000
0.001500  3.900000
-0.002300  3.900000
-0.001500  3.900000
0.004500  3.900000
0.008200  3.900000
0.005200  3.900000
0.003000  3.900000
0.002200  3.900000
0.006700  4.000000
0.009000  4.000000
0.003700  4.000000
-0.003800  4.000000
-0.008300  4.000000
-0.009100  4.000000
-0.009800  4.000000
-0.009800  4.000000
-0.009100  4.000000
-0.006000  4.000000
-0.000800  4.000000
-0.005300  4.000000
-0.006800  4.000000
-0.005300  4.000000
-0.003000  4.000000
0.002200  4.000000
0.003000  4.000000
0.006700  4.000000
0.008200  4.000000
0.004500  4.000000
0.001500  4.000000
0.000700  4.000000
0.001500  4.000000
0.000000  4.000000
-0.002300  4.000000
-0.000800  4.000000
0.000700  4.000000
-0.003000  4.000000
-0.006800  4.000000
-0.006800  4.000000
-0.001500  4.000000
0.000700  4.000000
0.000700  4.000000
0.003700  4.000000
0.003000  4.000000
-0.000800  4.000000
0.000700  4.000000
0.003000  4.000000
0.000700  4.000000
-0.000800  4.000000
0.001500  4.100000
0.002200  4.100000
0.000700  4.100000
0.004500  4.100000
0.008200  4.100000
0.006700  4.100000
0.005200  4.100000
0.003700  4.100000
0.000700  4.100000
-0.000800  4.100000
-0.000800  4.100000
-0.002300  4.100000
-0.000800  4.100000
-0.003000  4.100000
-0.003800  4.100000
-0.000800  4.100000
0.000000  4.100000
0.001500  4.100000
0.000700  4.100000
0.003000  4.100000
0.006000  4.100000
0.006000  4.100000
0.003700  4.100000
0.003000  4.100000
0.003700  4.100000
0.001500  4.100000
0.001500  4.100000
0.005200  4.100000
0.006000  4.100000
0.006700  4.100000
0.005200  4.100000
0.008200  4.100000
0.011200  4.100000
0.004500  4.100000
0.000700  4.100000
0.003000  4.100000
-0.003000  4.100000
-0.006800  4.100000
-0.005300  4.100000
-0.006800  4.100000
-0.007500  4.100000
-0.006800  4.100000
-0.003800  4.100000
-0.004600  4.100000
-0.006800  4.100000
-0.008300  4.100000
-0.007500  4.100000
-0.005300  4.100000
-0.000800  4.100000
0.003700  4.100000
0.003000  4.100000
-0.000800  4.100000
-0.001500  4.100000
0.000700  4.100000
0.001500  4.100000
0.003700  4.100000
0.006000  4.100000
0.003000  4.100000
0.003000  4.100000
0.002200  4.100000
-0.001500  4.100000
-0.003000  4.100000
-0.001500  4.100000
-0.005300  4.100000
-0.007500  4.100000
-0.001500  4.100000
0.003000  4.100000
0.007500  4.100000
0.006700  4.100000
0.002200  4.100000
0.001500  4.000000
0.002200  4.000000
0.003000  4.000000
0.000700  4.000000
-0.002300  4.000000
-0.002300  4.000000
-0.001500  4.000000
-0.001500  4.000000
-0.000800  4.000000
0.004500  4.000000
0.006700  4.000000
0.004500  4.000000
0.003700  4.000000
0.004500  4.000000
0.009000  4.000000
0.018000  4.000000
0.012700  4.000000
0.008200  4.000000
0.005200  4.000000
0.006700  4.000000
0.012000  4.000000
0.008200  4.000000
0.003700  4.000000
0.004500  4.000000
0.001500  4.000000
-0.001500  4.000000
-0.004600  4.000000
-0.003000  4.000000
0.001500  4.000000
0.003000  4.000000
0.000700  4.000000
-0.003000  4.000000
-0.004600  4.000000
-0.003000  4.000000
-0.001500  4.000000
0.000000  4.000000
0.003000  4.000000
0.001500  4.000000
-0.003000  4.000000
-0.003000  4.000000
0.001500  4.000000
0.003000  4.000000
0.003700  4.000000
0.003000  4.000000
0.000700  4.000000
0.000700  4.000000
0.003000  4.000000
-0.001500  4.000000
-0.003800  4.000000
-0.000800  4.000000
-0.003000  4.000000
-0.005300  4.000000
-0.000800  4.000000
0.001500  4.000000
0.001500  4.000000
0.001500  4.000000
0.006000  4.000000
0.009000  4.000000
0.003700  4.000000
-0.000800  4.000000
-0.001500  4.000000
0.000700  4.000000
0.000000  4.000000
-0.004600  4.000000
-0.004600  4.000000
-0.008300  4.000000
-0.006800  4.000000
-0.005300  4.000000
-0.006800  4.000000
-0.003800  4.000000
-0.000800  4.000000
0.000700  4.000000
0.001500  4.000000
-0.000800  4.000000
-0.001500  4.000000
-0.002300  4.000000
0.000000  4.000000
0.004500  4.000000
0.012000  4.000000
0.012700  4.000000
0.005200  4.000000
0.003700  4.000000
0.003700  4.000000
0.004500  4.000000
0.003700  4.000000
0.000700  4.000000
0.000700  4.000000
-0.006000  4.000000
-0.013500  4.000000
-0.012000  4.000000
-0.006000  4.000000
-0.001500  4.000000
0.000700  4.000000
-0.000800  4.000000
0.001500  4.000000
0.003700  4.000000
0.004500  4.000000
0.009000  4.000000
0.009000  4.000000
0.008200  4.000000
0.010500  4.000000
0.008200  4.000000
0.001500  4.000000
-0.001500  4.000000
-0.003000  4.000000
-0.000800  4.000000
-0.000800  4.000000
-0.000800  4.000000
0.000700  4.000000
0.002200  4.000000
0.001500  4.100000
0.000700  4.100000
0.000700  4.100000
0.000000  4.100000
0.001500  4.100000
0.005200  4.100000
0.004500  4.100000
0.005200  4.100000
0.006700  4.100000
0.005200  4.100000
0.004500  4.100000
0.003000  4.100000
0.001500  4.100000
0.001500  4.100000
-0.000800  4.100000
0.001500  4.100000
0.003700  4.100000
0.003700  4.100000
0.003700  4.100000
0.005200  4.100000
0.009000  4.100000
0.008200  4.100000
0.004500  4.100000
0.002200  4.100000
0.000700  4.100000
-0.003800  4.000000
-0.006000  4.000000
-0.009100  4.000000
-0.010500  4.000000
-0.008300  4.000000
-0.006800  4.000000
-0.006800  4.000000
-0.006800  4.000000
-0.007500  4.000000
-0.006000  4.000000
-0.001500  4.000000
-0.003800  4.000000
-0.003800  4.000000
0.000000  4.000000
0.002200  4.000000
0.001500  4.000000
0.000700  4.000000
-0.000800  4.000000
-0.001500  4.000000
-0.001500  4.000000
-0.001500  4.000000
-0.003800  4.000000
-0.003000  4.000000
-0.003000  4.000000
-0.004600  4.000000
0.001500  4.000000
0.006700  4.000000
0.006700  4.000000
0.005200  4.000000
0.001500  4.000000
0.003000  4.000000
0.005200  4.000000
0.008200  4.000000
0.006000  4.000000
0.004500  4.000000
0.003000  4.000000
-0.000800  4.000000
0.000700  4.000000
0.000000  4.000000
0.006700  4.000000
0.009000  4.000000
0.007500  4.000000
0.004500  4.000000
0.003000  4.000000
0.009000  4.000000
0.008200  4.000000
0.009000  4.000000
0.003700  4.000000
0.000700  4.000000
0.002200  4.000000
-0.001500  4.100000
-0.000800  4.100000
-0.002300  4.100000
-0.002300  4.100000
-0.003800  4.100000
-0.003000  4.100000
0.003700  4.100000
0.003000  4.100000
0.001500  4.100000
0.000700  4.100000
-0.003000  4.100000
-0.003800  4.100000
-0.001500  4.100000
-0.001500  4.100000
-0.000800  4.100000
0.002200  4.100000
-0.000800  4.100000
-0.003000  4.100000
-0.003000  4.100000
-0.003800  4.100000
-0.001500  4.100000
0.000700  4.100000
0.006000  4.100000
0.006000  4.100000
0.010500  4.100000
0.012000  4.100000
0.008200  4.100000
0.005200  4.100000
0.003700  4.100000
0.004500  4.100000
-0.002300  4.100000
-0.005300  4.100000
-0.005300  4.100000
-0.006800  4.100000
-0.006000  4.100000
-0.007500  4.100000
-0.009800  4.100000
-0.011300  4.100000
-0.010500  4.100000
-0.006800  4.100000
-0.005300  4.100000
-0.000800  4.100000
0.008200  4.100000
0.004500  4.100000
-0.000800  4.100000
0.000700  4.100000
0.003000  4.100000
0.004500  4.100000
0.000700  4.100000
-0.001500  4.100000
-0.003800  4.100000
0.000000  4.100000
0.003700  4.100000
0.004500  4.100000
0.001500  4.100000
0.003000  4.100000
0.002200  4.100000
-0.000800  4.100000
0.000700  4.100000
0.005200  4.100000
0.002200  4.200000
-0.006000  4.200000
-0.005300  4.200000
-0.001500  4.200000
0.000700  4.200000
0.003000  4.200000
0.003000  4.200000
0.003000  4.200000
0.000700  4.200000
-0.000800  4.200000
-0.001500  4.200000
0.000700  4.200000
0.009000  4.200000
0.011200  4.200000
0.003700  4.200000
0.002200  4.200000
0.000700  4.200000
-0.000800  4.200000
0.000000  4.200000
-0.003000  4.200000
-0.003000  4.200000
-0.000800  4.200000
0.001500  4.200000
0.003000  4.200000
0.007500  4.200000
0.009000  4.300000
0.003700  4.300000
0.000700  4.300000
0.003000  4.300000
0.005200  4.300000
0.006000  4.300000
0.009700  4.300000
0.012700  4.300000
0.010500  4.300000
0.011200  4.300000
0.012000  4.300000
0.009000  4.300000
0.005200  4.300000
0.005200  4.300000
0.015700  4.300000
0.019500  4.300000
0.012700  4.300000
0.006000  4.300000
-0.003000  4.300000
-0.010500  4.300000
-0.009800  4.300000
-0.003000  4.300000
-0.003000  4.300000
-0.003000  4.300000
-0.003000  4.300000
-0.001500  4.400000
0.004500  4.400000
0.003000  4.400000
-0.004600  4.400000
-0.005300  4.400000
-0.004600  4.400000
-0.005300  4.400000
-0.004600  4.400000
-0.004600  4.400000
-0.004600  4.400000
-0.003800  4.400000
-0.005300  4.400000
-0.007500  4.400000
-0.006800  4.400000
-0.003800  4.400000
-0.003800  4.400000
-0.003800  4.400000
-0.004600  4.400000
-0.004600  4.400000
-0.002300  4.400000
-0.000800  4.400000
0.003000  4.400000
0.005200  4.400000
0.006700  4.400000
0.005200  4.400000
0.006700  4.300000
0.007500  4.300000
0.005200  4.300000
0.003000  4.300000
-0.000800  4.300000
-0.005300  4.300000
-0.008300  4.300000
-0.008300  4.300000
-0.008300  4.300000
-0.006800  4.300000
-0.008300  4.400000
-0.009100  4.400000
-0.003800  4.400000
-0.003000  4.400000
-0.003000  4.400000
-0.005300  4.400000
-0.003800  4.400000
0.000000  4.400000
0.001500  4.400000
0.004500  4.400000
0.006700  4.400000
0.009000  4.400000
0.010500  4.400000
0.006000  4.400000
0.003000  4.400000
0.003000  4.400000
0.004500  4.400000
0.000000  4.400000
-0.003000  4.400000
-0.003000  4.400000
-0.003000  4.400000
0.001500  4.400000
0.006700  4.400000
0.013500  4.400000
0.014200  4.400000
0.010500  4.500000
0.004500  4.500000
0.000700  4.500000
0.003000  4.500000
0.006700  4.500000
0.012700  4.500000
0.012700  4.500000
0.010500  4.500000
0.006700  4.500000
0.001500  4.500000
-0.000800  4.500000
0.000000  4.500000
0.001500  4.500000
0.004500  4.500000
0.001500  4.500000
0.004500  4.500000
0.005200  4.500000
0.003000  4.500000
0.005200  4.500000
0.006000  4.500000
0.004500  4.500000
-0.000800  4.500000
-0.001500  4.500000
-0.004600  4.500000
-0.005300  4.500000
-0.004600  4.500000
-0.006800  4.500000
0.000000  4.500000
0.004500  4.500000
0.004500  4.600000
0.003700  4.600000
0.001500  4.600000
-0.000800  4.600000
-0.006800  4.600000
-0.009100  4.600000
-0.005300  4.600000
-0.002300  4.600000
-0.003000  4.600000
-0.003000  4.600000
-0.004600  4.600000
-0.008300  4.600000
-0.005300  4.600000
-0.003800  4.700000
-0.005300  4.700000
-0.004600  4.700000
-0.001500  4.700000
0.000700  4.700000
0.001500  4.700000
0.002200  4.700000
0.003000  4.700000
0.003000  4.700000
0.008200  4.700000
0.016500  4.700000
0.016500  4.700000
0.009700  4.700000
0.004500  4.800000
0.005200  4.800000
0.005200  4.800000
0.004500  4.800000
0.008200  4.800000
0.006000  4.800000
0.003000  4.800000
0.004500  4.800000
0.000700  4.800000
0.002200  4.800000
0.002200  4.800000
0.000700  4.800000
0.000000  4.800000
-0.001500  4.900000
-0.003000  4.900000
-0.006800  4.900000
-0.010500  4.900000
-0.009100  4.900000
-0.007500  4.900000
-0.009800  4.900000
-0.004600  4.900000
-0.000800  4.900000
-0.004600  4.900000
-0.004600  4.900000
-0.003800  4.900000
-0.003800  4.900000
-0.001500  4.900000
0.003700  4.900000
0.005200  5.000000
0.001500  5.000000
0.001500  5.000000
0.001500  5.000000
0.001500  5.000000
-0.001500  5.000000
-0.003000  5.000000
-0.004600  5.000000
-0.006000  5.100000
-0.005300  5.100000
-0.003000  5.100000
0.003000  5.100000
0.009700  5.100000
0.009000  5.100000
0.006700  5.100000
0.009000  5.100000
0.010500  5.100000
0.009000  5.200000
0.005200  5.200000
0.001500  5.200000
0.003000  5.200000
0.006700  5.200000
0.006000  5.200000
0.003700  5.200000
0.003000  5.200000
0.005200  5.300000
0.006700  5.300000
0.005200  5.300000
0.005200  5.300000
0.003000  5.300000
-0.001500  5.300000
-0.004600  5.300000
-0.009100  5.300000
-0.012000  5.300000
-0.012000  5.300000
-0.012800  5.300000
-0.012800  5.300000
-0.009100  5.300000
-0.005300  5.300000
-0.003800  5.300000
0.001500  5.400000
0.000700  5.400000
-0.003000  5.400000
-0.003000  5.400000
-0.006000  5.400000
-0.003000  5.400000
0.000700  5.500000
0.000000  5.500000
0.000000  5.500000
0.003000  5.500000
0.005200  5.600000
0.006000  5.600000
0.006700  5.600000
0.006700  5.600000
0.006000  5.600000
0.005200  5.700000
0.005200  5.700000
0.007500  5.700000
0.008200  5.700000
0.009000  5.800000
0.009700  5.800000
0.008200  5.800000
0.009000  5.800000
0.014200  5.800000
0.008200  5.800000
0.000000  5.800000
0.000700  5.900000
0.000000  5.900000
0.000000  5.900000
0.000000  6.000000
0.001500  6.000000
0.001500  6.000000
0.001500  6.000000
0.000700  6.100000
-0.001500  6.100000
-0.001500  6.100000
-0.006800  6.100000
-0.006800  6.200000
-0.007500  6.200000
-0.006800  6.200000
-0.003000  6.200000
-0.001500  6.200000
0.000000  6.300000
-0.003000  6.300000
-0.004600  6.300000
-0.003000  6.300000
0.001500  6.400000
0.004500  6.400000
0.005200  6.500000
-0.000800  6.500000
-0.000800  6.500000
0.004500  6.600000
0.002200  6.600000
0.004500  6.700000
0.004500  6.700000
0.005200  6.700000
0.005200  6.700000
0.003000  6.800000
0.003000  6.800000
0.001500  6.900000
0.003000  6.900000
0.003700  6.900000
0.005200  7.000000
0.006700  7.000000
0.005200  7.100000
0.004500  7.100000
0.003000  7.100000
0.005200  7.200000
0.006000  7.200000
0.003700  7.200000
-0.000800  7.200000
-0.001500  7.300000
-0.000800  7.300000
0.000000  7.300000
-0.000800  7.400000
-0.000800  7.400000
0.000700  7.400000
0.000700  7.500000
-0.000800  7.500000
-0.002300  7.600000
0.001500  7.600000
0.005200  7.600000
0.003000  7.600000
0.001500  7.700000
0.003000  7.700000
0.005200  7.700000
0.006000  7.800000
0.003000  7.800000
-0.000800  7.900000
-0.004600  7.900000
-0.006000  7.900000
-0.005300  8.000000
-0.005300  8.000000
-0.005300  8.100000
-0.003000  8.100000
-0.000800  8.100000
-0.000800  8.100000
-0.001500  8.200000
0.000700  8.200000
0.002200  8.300000
-0.000800  8.300000
-0.004600  8.300000
-0.010500  8.400000
-0.012000  8.400000
-0.009800  8.400000
-0.006800  8.500000
-0.004600  8.500000
-0.003800  8.500000
-0.003000  8.500000
-0.002300  8.600000
0.000000  8.600000
0.003000  8.600000
0.009000  8.700000
0.009700  8.700000
0.008200  8.700000
0.009000  8.800000
0.010500  8.800000
0.012000  8.900000
0.008200  8.900000
0.005200  8.900000
0.005200  9.000000
0.004500  9.000000
0.001500  9.000000
0.003000  9.000000
0.003000  9.100000
0.000000  9.100000
0.003000  9.100000
0.006000  9.200000
0.004500  9.200000
0.003000  9.300000
0.000700  9.300000
0.000700  9.400000
0.001500  9.400000
0.003000  9.400000
0.003700  9.400000
0.003700  9.500000
0.005200  9.500000
0.005200  9.600000
0.003000  9.600000
0.003700  9.600000
0.005200  9.700000
0.005200  9.700000
-0.000800  9.800000
-0.002300  9.800000
-0.003000  9.900000
-0.003000  9.900000
0.005200  9.900000
0.005200  9.900000
0.001500  10.000000
-0.003000  10.000000
-0.008300  10.100000
-0.009100  10.100000
-0.008300  10.200000
-0.005300  10.200000
-0.001500  10.200000
-0.001500  10.300000
-0.000800  10.300000
0.000700  10.300000
0.000000  10.400000
-0.003800  10.400000
-0.003800  10.400000
-0.002300  10.500000
-0.003000  10.500000
-0.004600  10.600000
-0.009100  10.600000
-0.011300  10.700000
-0.008300  10.700000
-0.008300  10.700000
-0.005300  10.800000
-0.001500  10.800000
-0.003800  10.900000
-0.001500  10.900000
0.000700  11.000000
0.001500  11.100000
0.000700  11.100000
0.000700  11.200000
-0.000800  11.200000
-0.006800  11.200000
-0.006800  11.300000
-0.005300  11.300000
-0.000800  11.400000
0.003000  11.400000
0.003000  11.500000
0.000000  11.500000
0.000700  11.600000
0.006000  11.600000
0.008200  11.700000
0.006000  11.700000
0.004500  11.700000
0.006700  11.800000
0.006000  11.800000
0.005200  11.900000
0.005200  11.900000
0.006700  12.000000
0.007500  12.000000
0.005200  12.100000
0.005200  12.100000
0.004500  12.100000
0.003000  12.200000
0.000000  12.200000
0.000700  12.300000
0.000000  12.300000
0.000000  12.400000
0.000700  12.400000
-0.003000  12.500000
-0.001500  12.500000
0.000000  12.600000
0.001500  12.600000
0.004500  12.600000
0.007500  12.700000
0.009000  12.700000
0.009000  12.800000
0.006700  12.900000
0.004500  12.900000
0.006000  13.000000
0.008200  13.000000
0.006700  13.000000
0.005200  13.100000
0.005200  13.100000
0.001500  13.200000
-0.002300  13.200000
-0.003000  13.300000
-0.003800  13.300000
-0.001500  13.400000
0.001500  13.400000
0.003000  13.500000
0.003000  13.500000
0.002200  13.500000
0.000700  13.600000
-0.000800  13.600000
0.003000  13.700000
0.004500  13.700000
0.004500  13.800000
0.003000  13.800000
-0.001500  13.900000
-0.001500  13.900000
0.000700  13.900000
-0.000800  14.000000
-0.002300  14.000000
-0.001500  14.100000
-0.001500  14.100000
0.001500  14.200000
0.001500  14.200000
0.001500  14.300000
-0.000800  14.300000
-0.004600  14.400000
-0.001500  14.400000
0.000700  14.400000
0.000000  14.400000
-0.000800  14.500000
-0.004600  14.500000
-0.005300  14.600000
-0.005300  14.600000
-0.004600  14.700000
-0.001500  14.700000
0.000700  14.800000
0.000700  14.800000
0.001500  14.800000
-0.000800  14.800000
-0.002300  14.900000
-0.000800  14.900000
0.000000  15.000000
0.000000  15.000000
0.001500  15.100000
0.002200  15.100000
0.002200  15.200000
0.001500  15.200000
0.001500  15.300000
0.002200  15.300000
0.001500  15.300000
0.002200  15.400000
0.003700  15.400000
0.003000  15.500000
0.003700  15.500000
0.003700  15.500000
0.001500  15.600000
0.001500  15.600000
-0.000800  15.700000
-0.000800  15.700000
-0.001500  15.700000
-0.003800  15.800000
-0.005300  15.800000
-0.004600  15.900000
-0.001500  15.900000
-0.003800  16.000000
-0.003000  16.000000
-0.002300  16.100000
-0.005300  16.200000
-0.003800  16.200000
-0.003000  16.200000
-0.001500  16.300000
-0.000800  16.300000
0.001500  16.400000
0.003000  16.400000
0.000700  16.500000
